#Wave		#Intensity
4002.101563	15037.388672
4001.403320	15098.240234
4000.705078	14727.186523
4000.005859	14810.699219
3999.307617	14887.030273
3998.608398	14927.563477
3997.909180	14749.911133
3997.209961	15233.879883
3996.510742	15099.140625
3995.811523	14817.873047
3995.112305	14754.728516
3994.413086	15102.583008
3993.712891	14975.095703
3993.013672	14908.382813
3992.313477	15023.863281
3991.613281	14996.449219
3990.913086	14969.042969
3990.212891	15027.333008
3989.512695	14971.372070
3988.812500	14840.477539
3988.112305	15080.754883
3987.411133	15142.555664
3986.709961	15068.774414
3986.009766	14727.502930
3985.308594	14899.883789
3984.607422	14954.541016
3983.906250	14977.093750
3983.205078	14988.946289
3982.502930	14573.116211
3981.801758	14987.693359
3981.099609	15028.039063
3980.398438	14840.386719
3979.696289	15087.321289
3978.994141	14881.913086
3978.291992	14744.221680
3977.589844	14745.413086
3976.887695	14657.618164
3976.185547	14722.881836
3975.482422	14795.239258
3974.780273	15077.477539
3974.077148	14804.714844
3973.374023	14866.354492
3972.670898	14657.719727
3971.967773	14786.915039
3971.264648	14784.539063
3970.561523	14721.742188
3969.857422	14744.252930
3969.154297	14709.906250
3968.450195	14881.618164
3967.746094	14879.227539
3967.042969	14823.566406
3966.338867	14934.812500
3965.634766	14662.593750
3964.929688	14720.583008
3964.225586	14977.304688
3963.521484	15045.870117
3962.816406	15000.877930
3962.112305	14792.717773
3961.407227	14772.608398
3960.702148	14961.734375
3959.997070	14799.774414
3959.291992	14644.957031
3958.586914	14904.902344
3957.880859	14838.716797
3957.175781	14719.400391
3956.469727	14950.865234
3955.763672	14406.493164
3955.058594	14737.101563
3954.352539	14812.640625
3953.646484	14434.958984
3952.939453	14896.382813
3952.233398	14614.375000
3951.527344	14679.266602
3950.820313	14425.689453
3950.114258	14543.655273
3949.407227	14838.442383
3948.700195	14737.035156
3947.993164	14794.781250
3947.286133	14576.741211
3946.579102	14694.587891
3945.871094	14547.320313
3945.164063	14534.382813
3944.456055	14701.642578
3943.749023	14603.901367
3943.041016	14714.582031
3942.333008	14796.975586
3941.625000	14808.722656
3940.916992	14735.738281
3940.208984	14581.590820
3939.500000	14783.944336
3938.791992	14749.813477
3938.083008	14602.792969
3937.375000	14561.645508
3936.666016	14598.103516
3935.957031	14648.656250
3935.248047	14498.219727
3934.538086	14513.517578
3933.829102	14779.064453
3933.120117	14709.733398
3932.410156	14580.523438
3931.701172	14539.429688
3930.991211	14699.127930
3930.281250	14672.114258
3929.571289	14504.257813
3928.861328	14618.113281
3928.151367	14330.632813
3927.440430	14641.577148
3926.730469	14368.260742
3926.019531	14570.025391
3925.308594	14486.774414
3924.598633	14561.831055
3923.887695	14422.338867
3923.176758	14757.581055
3922.464844	14533.725586
3921.753906	14742.297852
3921.042969	14360.362305
3920.331055	14421.308594
3919.620117	14499.801758
3918.908203	14518.551758
3918.196289	14294.948242
3917.484375	14440.144531
3916.772461	14652.006836
3916.060547	14424.977539
3915.347656	14563.063477
3914.635742	14606.348633
3913.922852	14491.719727
3913.210938	14401.685547
3912.498047	14588.792969
3911.785156	14488.250000
3911.072266	14250.979492
3910.359375	14567.745117
3909.645508	14404.153320
3908.932617	14815.425781
3908.218750	14546.714844
3907.505859	14498.830078
3906.791992	14401.915039
3906.078125	14770.890625
3905.364258	14547.884766
3904.650391	14465.013672
3903.936523	14469.694336
3903.222656	14547.882813
3902.507813	14391.552734
3901.793945	14553.711914
3901.079102	14236.487305
3900.364258	14695.965820
3899.649414	14445.274414
3898.934570	14292.582031
3898.219727	14611.967773
3897.504883	14389.377930
3896.789063	14460.471680
3896.074219	14566.491211
3895.358398	14735.374023
3894.642578	14593.260742
3893.927734	14545.507813
3893.211914	14452.366211
3892.495117	14425.602539
3891.779297	14517.557617
3891.063477	14459.373047
3890.346680	14530.350586
3889.630859	14611.774414
3888.914063	14473.349609
3888.197266	14446.606445
3887.481445	14381.501953
3886.763672	14340.832031
3886.046875	14352.478516
3885.330078	14419.904297
3884.613281	14598.856445
3883.895508	14593.029297
3883.178711	14493.114258
3882.460938	14466.399414
3881.743164	14415.307617
3881.025391	14353.782227
3880.307617	14755.452148
3879.589844	14544.166992
3878.871094	14649.756836
3878.153320	14556.904297
3877.434570	14578.930664
3876.716797	14513.957031
3875.998047	14288.960938
3875.279297	14561.479492
3874.560547	14500.016602
3873.841797	14449.004883
3873.122070	14603.149414
3872.403320	14326.171875
3871.683594	14400.341797
3870.964844	14634.350586
3870.245117	14625.052734
3869.525391	14424.679688
3868.805664	14339.000000
3868.085938	14812.505859
3867.366211	14535.803711
3866.645508	14748.731445
3865.925781	14718.593750
3865.205078	14855.065430
3864.485352	14765.925781
3863.764648	14569.254883
3863.043945	14438.559570
3862.323242	14595.797852
3861.602539	14472.076172
3860.880859	14826.903320
3860.160156	14671.981445
3859.439453	14700.825195
3858.717773	14566.766602
3857.996094	14578.291016
3857.274414	14589.811523
3856.552734	14604.791992
3855.831055	14422.342773
3855.109375	14593.180664
3854.387695	14531.978516
3853.665039	14498.490234
3852.942383	14510.009766
3852.220703	14403.858398
3851.498047	14553.798828
3850.775391	14565.303711
3850.052734	14486.866211
3849.330078	14678.223633
3848.606445	14665.495117
3847.883789	14483.354492
3847.160156	14695.360352
3846.437500	14658.440430
3845.713867	14486.753906
3844.990234	14391.138672
3844.266602	14499.381836
3843.542969	14756.117188
3842.819336	14867.718750
3842.094727	14288.676758
3841.371094	14400.317383
3840.646484	14632.739258
3839.921875	14416.407227
3839.198242	14669.456055
3838.473633	14380.731445
3837.749023	14406.022461
3837.023438	14548.577148
3836.298828	14404.850586
3835.574219	14516.327148
3834.848633	14479.523438
3834.123047	14763.298828
3833.398438	14392.166992
3832.672852	14548.367188
3831.947266	14287.637695
3831.220703	14667.712891
3830.495117	14558.590820
3829.769531	14755.987305
3829.042969	14719.189453
3828.317383	14283.070313
3827.590820	14452.878906
3826.864258	14701.786133
3826.137695	14441.362305
3825.411133	14559.458008
3824.684570	14522.725586
3823.957031	14300.287109
3823.230469	14315.187500
3822.502930	14412.597656
3821.775391	14668.103516
3821.048828	14572.952148
3820.321289	14340.372070
3819.593750	14547.664063
3818.865234	14610.603516
3818.137695	14663.217773
3817.410156	14283.097656
3816.681641	14644.780273
3815.953125	14422.709961
3815.225586	14447.858398
3814.497070	14431.813477
3813.768555	14731.472656
3813.040039	14410.031250
3812.310547	14490.050781
3811.582031	14556.325195
3810.852539	14622.577148
3810.124023	14589.374023
3809.394531	14525.327148
3808.665039	14666.959961
3807.935547	14623.482422
3807.206055	14288.761719
3806.476563	14646.202148
3805.747070	14671.257813
3805.016602	14881.250000
3804.286133	14577.520508
3803.556641	14571.759766
3802.826172	14240.790039
3802.095703	14710.841797
3801.365234	14581.863281
3800.634766	14634.271484
3799.903320	14802.978516
3799.172852	14800.605469
3798.441406	14435.714844
3797.710938	14628.308594
3796.979492	14612.287109
3796.248047	14548.415039
3795.516602	14286.331055
3794.785156	14861.553711
3794.053711	14671.252930
3793.321289	14569.833008
3792.589844	14430.874023
3791.857422	14469.541016
3791.125000	14521.853516
3790.393555	14475.144531
3789.661133	14462.583008
3788.927734	14572.888672
3788.195313	14608.088867
3787.462891	14728.570313
3786.729492	14640.928711
3785.997070	14471.458984
3785.263672	14758.999023
3784.530273	14538.420898
3783.796875	14512.227539
3783.063477	14680.325195
3782.330078	14749.538086
3781.596680	14614.286133
3780.862305	14550.620117
3780.128906	14592.569336
3779.394531	14552.766602
3778.660156	14662.805664
3777.925781	14238.278320
3777.191406	14658.105469
3776.457031	14727.231445
3775.722656	14786.125000
3774.988281	14518.361328
3774.252930	14767.777344
3773.517578	14860.649414
3772.783203	14664.418945
3772.047852	14709.672852
3771.312500	14918.099609
3770.577148	14735.550781
3769.840820	14634.626953
3769.105469	14584.708008
3768.370117	14701.285156
3767.633789	14586.827148
3766.897461	14618.454102
3766.161133	14979.475586
3765.425781	14898.981445
3764.688477	14455.262695
3763.952148	14503.860352
3763.215820	14511.716797
3762.478516	15042.125977
3761.742188	14870.082031
3761.004883	14955.893555
3760.267578	14892.448242
3759.530273	14730.682617
3758.792969	14836.817383
3758.055664	14847.999023
3757.318359	14604.971680
3756.581055	14829.684570
3755.842773	14688.386719
3755.104492	15143.382813
3754.367188	14798.844727
3753.628906	14776.152344
3752.890625	14963.409180
3752.151367	15089.664063
3751.413086	14887.526367
3750.674805	14820.834961
3749.935547	14953.819336
3749.197266	15036.008789
3748.458008	15138.468750
3747.718750	15102.218750
3746.979492	15076.125977
3746.240234	14908.027344
3745.500977	14831.261719
3744.760742	14964.092773
3744.021484	14927.898438
3743.281250	14959.296875
3742.541992	15014.334961
3741.801758	14755.199219
3741.061523	14891.311523
3740.321289	15105.048828
3739.581055	15153.274414
3738.839844	14867.273438
3738.099609	14800.759766
3737.358398	14835.510742
3736.618164	15065.955078
3735.876953	14958.956055
3735.135742	14956.559570
3734.394531	15136.283203
3733.653320	15046.183594
3732.911133	14895.425781
3732.169922	15206.541016
3731.427734	14708.647461
3730.686523	15117.419922
3729.944336	15084.672852
3729.202148	14974.453125
3728.459961	14924.897461
3727.717773	15131.305664
3726.974609	14994.192383
3726.232422	14991.790039
3725.490234	15255.312500
3724.747070	15020.641602
3724.003906	15061.980469
3723.260742	14911.528320
3722.517578	15171.528320
3721.774414	14967.291016
3721.031250	15133.038086
3720.288086	14979.306641
3719.543945	15037.418945
3718.799805	15065.260742
3718.056641	15005.714844
3717.312500	15204.921875
3716.568359	15286.477539
3715.824219	15126.148438
3715.079102	15291.654297
3714.334961	15178.388672
3713.590820	15068.515625
3712.845703	15180.238281
3712.100586	15238.221680
3711.356445	15366.660156
3710.611328	15203.140625
3709.866211	15227.542969
3709.120117	15067.452148
3708.375000	15182.418945
3707.629883	15277.229492
3706.883789	15351.892578
3706.137695	15061.149414
3705.391602	15018.516602
3704.646484	15240.630859
3703.899414	15074.013672
3703.153320	15527.196289
3702.407227	15380.682617
3701.661133	14983.045898
3700.914063	15231.773438
3700.166992	15138.941406
3699.420898	15026.054688
3698.673828	15361.670898
3697.926758	15298.976563
3697.178711	15229.611328
3696.431641	15274.003906
3695.684570	15191.285156
3694.936523	15509.883789
3694.189453	15397.061523
3693.441406	15528.315430
3692.693359	15529.169922
3691.945313	15433.107422
3691.197266	15256.880859
3690.448242	15321.253906
3689.700195	15298.756836
3688.952148	15520.072266
3688.203125	15567.674805
3687.454102	15374.873047
3686.705078	15505.937500
3685.956055	15343.245117
3685.207031	15437.563477
3684.458008	15421.744141
3683.708984	15526.027344
3682.958984	15320.072266
3682.208984	15684.466797
3681.459961	15758.646484
3680.709961	15496.075195
3679.959961	15376.923828
3679.209961	15501.109375
3678.458984	15565.271484
3677.708984	15899.288086
3676.958984	15566.947266
3676.208008	15427.893555
3675.457031	15678.515625
3674.706055	15636.047852
3673.955078	15523.681641
3673.204102	15604.409180
3672.453125	15615.221680
3671.702148	15662.632813
3670.950195	15819.818359
3670.199219	15890.465820
3669.447266	15761.535156
3668.695313	15955.208008
3667.943359	16135.518555
3667.191406	15930.149414
3666.439453	15784.674805
3665.687500	15752.236328
3664.934570	16042.112305
3664.182617	16215.618164
3663.429688	15867.567383
3662.676758	16266.881836
3661.923828	16051.757813
3661.170898	16490.753906
3660.417969	16239.147461
3659.665039	16040.724609
3658.911133	16403.185547
3658.158203	16466.917969
3657.404297	16457.644531
3656.650391	16461.640625
3655.896484	16502.117188
3655.142578	16791.263672
3654.388672	16447.099609
3653.634766	16686.441406
3652.879883	16368.917969
3652.125977	16876.603516
3651.371094	16658.544922
3650.616211	16735.378906
3649.861328	17239.447266
3649.106445	16869.101563
3648.351563	17154.458984
3647.596680	16807.417969
3646.840820	16993.394531
3646.085938	17076.716797
3645.330078	17325.458984
3644.574219	17584.044922
3643.818359	17167.746094
3643.062500	17522.187500
3642.306641	17582.208984
3641.550781	17605.841797
3640.793945	17460.875000
3640.038086	17659.695313
3639.281250	17957.591797
3638.524414	18030.708984
3637.768555	17555.404297
3637.011719	17466.710938
3636.253906	17648.857422
3635.497070	18019.158203
3634.740234	18181.345703
3633.982422	18194.937500
3633.224609	18046.804688
3632.467773	18350.804688
3631.709961	18304.972656
3630.952148	17823.707031
3630.194336	18513.500000
3629.435547	18444.578125
3628.677734	18751.566406
3627.918945	18507.900391
3627.161133	18607.117188
3626.402344	18119.669922
3625.643555	18683.535156
3624.884766	18479.568359
3624.125977	18891.666016
3623.367188	18608.685547
3622.607422	18862.562500
3621.848633	19014.289063
3621.088867	18813.722656
3620.329102	19225.433594
3619.569336	19021.605469
3618.809570	19192.949219
3618.049805	19045.121094
3617.290039	18867.734375
3616.530273	18996.263672
3615.769531	19233.267578
3615.008789	19223.609375
3614.249023	19440.775391
3613.488281	19279.898438
3612.727539	19421.402344
3611.966797	19217.865234
3611.205078	19687.847656
3610.444336	19395.646484
3609.682617	19287.449219
3608.921875	19681.669922
3608.160156	19632.554688
3607.398438	19370.091797
3606.636719	19307.912109
3605.875000	19655.935547
3605.113281	19590.449219
3604.350586	19715.246094
3603.588867	19840.003906
3602.826172	19751.560547
3602.063477	19666.425781
3601.301758	19617.378906
3600.539063	20115.736328
3599.775391	20010.919922
3599.012695	20161.720703
3598.250000	20014.337891
3597.486328	20220.773438
3596.723633	19912.945313
3595.959961	20355.105469
3595.196289	20034.255859
3594.432617	19759.339844
3593.668945	19824.908203
3592.904297	20299.521484
3592.140625	19736.755859
3591.376953	20325.732422
3590.612305	19864.542969
3589.847656	20158.968750
3589.083008	20113.230469
3588.318359	20106.740234
3587.553711	20087.173828
3586.789063	20263.714844
3586.023438	20188.576172
3585.258789	20195.144531
3584.493164	20231.109375
3583.727539	20201.738281
3582.962891	20038.482422
3582.197266	20025.476563
3581.430664	20404.236328
3580.665039	20355.267578
3579.899414	20348.744141
3579.132813	20068.119141
3578.367188	20188.882813
3577.600586	20482.496094
3576.833984	20074.783203
3576.067383	20391.148438
3575.300781	20084.654297
3574.533203	20312.894531
3573.766602	20237.933594
3572.999023	20205.361328
3572.232422	20322.685547
3571.464844	20143.503906
3570.697266	20391.093750
3569.929688	19993.748047
3569.162109	20120.798828
3568.394531	20182.691406
3567.625977	20407.326172
3566.858398	20443.113281
3566.089844	20342.212891
3565.321289	20517.908203
3564.552734	20241.351563
3563.784180	20251.119141
3563.015625	20634.880859
3562.247070	20495.007813
3561.477539	20673.785156
3560.708984	20299.906250
3559.939453	20306.404297
3559.169922	20475.376953
3558.400391	20059.470703
3557.630859	20400.599609
3556.861328	20290.146484
3556.091797	20416.794922
3555.321289	20280.398438
3554.551758	20682.953125
3553.781250	19952.556641
3553.010742	20442.658203
3552.240234	20481.566406
3551.469727	20432.865234
3550.699219	20721.535156
3549.928711	20089.015625
3549.157227	20367.917969
3548.386719	20598.097656
3547.615234	20124.746094
3546.843750	20409.990234
3546.072266	20513.664063
3545.300781	20490.935547
3544.529297	20218.759766
3543.757813	20222.000000
3542.985352	20383.929688
3542.213867	20118.376953
3541.441406	20461.576172
3540.668945	20409.742188
3539.896484	20390.289063
3539.124023	19775.412109
3538.351563	20144.328125
3537.578125	20154.041016
3536.805664	20108.763672
3536.032227	20273.707031
3535.259766	20154.054688
3534.486328	20024.742188
3533.712891	20289.824219
3532.939453	20541.892578
3532.165039	20225.158203
3531.391602	20166.992188
3530.618164	20147.611328
3529.843750	19999.041016
3529.069336	20208.970703
3528.294922	20102.412109
3527.520508	20205.722656
3526.746094	19976.542969
3525.971680	20028.205078
3525.197266	19744.273438
3524.421875	20179.873047
3523.647461	20150.833984
3522.872070	20154.054688
3522.096680	20079.884766
3521.321289	19731.685547
3520.545898	20173.382813
3519.769531	20234.611328
3518.994141	20263.595703
3518.218750	20060.580078
3517.442383	20144.347656
3516.666016	19819.017578
3515.889648	20015.513672
3515.113281	19748.267578
3514.336914	19906.078125
3513.560547	19674.341797
3512.783203	19799.927734
3512.006836	19668.037109
3511.229492	20186.107422
3510.452148	20314.767578
3509.674805	19970.574219
3508.897461	20073.498047
3508.120117	19584.761719
3507.342773	19993.125000
3506.564453	19768.132813
3505.787109	19764.964844
3505.008789	19899.970703
3504.230469	19848.589844
3503.452148	19925.716797
3502.673828	19765.148438
3501.895508	19993.189453
3501.117188	19928.982422
3500.337891	19835.904297
3499.559570	19771.740234
3498.780273	19784.619141
3498.000977	20050.976563
3497.221680	19948.310547
3496.442383	20044.550781
3495.663086	19874.568359
3494.883789	19781.599609
3494.103516	19691.865234
3493.324219	19970.800781
3492.543945	19996.447266
3491.763672	19900.310547
3490.983398	19861.876953
3490.203125	19640.853516
3489.422852	19759.421875
3488.641602	20060.494141
3487.861328	19634.617188
3487.080078	19826.759766
3486.298828	19926.013672
3485.517578	19775.599609
3484.736328	19554.835938
3483.955078	20057.210938
3483.173828	19865.261719
3482.392578	19964.427734
3481.610352	19916.457031
3480.828125	20114.701172
3480.046875	19817.365234
3479.264648	19823.779297
3478.482422	19804.623047
3477.700195	19756.714844
3476.916992	19622.562500
3476.134766	19638.583984
3475.351563	20053.822266
3474.569336	19942.037109
3473.786133	19878.179688
3473.002930	19718.574219
3472.219727	19938.835938
3471.436523	19760.123047
3470.652344	19989.878906
3469.869141	19804.833984
3469.084961	19747.435547
3468.300781	19772.972656
3467.517578	19645.445313
3466.733398	19788.953125
3465.949219	19801.720703
3465.164063	19505.330078
3464.379883	19722.082031
3463.594727	19527.753906
3462.810547	19817.701172
3462.025391	19808.154297
3461.240234	19754.027344
3460.455078	19811.359375
3459.669922	19508.927734
3458.884766	19696.785156
3458.098633	19808.201172
3457.313477	19486.822266
3456.527344	19785.943359
3455.742188	19875.023438
3454.956055	19750.978516
3454.169922	19649.232422
3453.382813	19528.443359
3452.596680	19483.986328
3451.810547	19827.316406
3451.023438	19636.638672
3450.237305	19534.992188
3449.450195	19589.044922
3448.663086	19601.789063
3447.875977	19671.693359
3447.088867	19706.644531
3446.300781	19576.490234
3445.513672	19605.097656
3444.725586	19309.957031
3443.937500	19519.478516
3443.150391	19510.003906
3442.362305	19716.253906
3441.574219	19265.861328
3440.785156	19294.488281
3439.997070	19354.812500
3439.208984	19716.298828
3438.419922	19301.060547
3437.630859	19285.289063
3436.841797	19744.845703
3436.052734	19209.406250
3435.263672	19627.642578
3434.474609	19570.654297
3433.684570	19906.361328
3432.895508	19570.712891
3432.105469	19421.951172
3431.316406	19365.029297
3430.526367	19311.289063
3429.736328	19716.380859
3428.945313	19396.847656
3428.155273	19513.941406
3427.365234	19368.490234
3426.574219	19653.146484
3425.783203	19425.515625
3424.993164	19292.792969
3424.202148	19526.751953
3423.411133	19413.015625
3422.619141	19558.410156
3421.828125	19561.593750
3421.037109	19441.585938
3420.245117	19517.423828
3419.453125	19365.886719
3418.661133	19069.167969
3417.869141	19460.691406
3417.077148	19224.017578
3416.285156	19369.250000
3415.493164	19249.406250
3414.700195	19258.939453
3413.907227	19571.261719
3413.115234	19041.472656
3412.322266	18928.062500
3411.529297	19196.150391
3410.736328	19284.484375
3409.942383	19391.699219
3409.149414	19272.000000
3408.355469	19319.320313
3407.562500	19067.367188
3406.768555	19272.181641
3405.974609	19105.341797
3405.180664	19010.970703
3404.386719	19297.542969
3403.591797	19461.269531
3402.797852	19064.769531
3402.002930	19278.824219
3401.208984	19108.994141
3400.414063	19178.279297
3399.619141	19175.203125
3398.824219	19269.609375
3398.028320	19103.031250
3397.233398	19040.242188
3396.437500	19106.335938
3395.642578	19257.255859
3394.846680	19031.085938
3394.050781	18855.253906
3393.254883	19122.355469
3392.458984	19191.521484
3391.663086	19244.964844
3390.866211	19044.091797
3390.070313	19219.958984
3389.273438	19059.955078
3388.476563	19012.966797
3387.679688	18987.957031
3386.882813	18956.679688
3386.085938	18897.183594
3385.289063	19000.777344
3384.491211	19041.626953
3383.694336	19076.193359
3382.896484	18809.841797
3382.098633	18891.441406
3381.300781	18879.011719
3380.502930	19370.990234
3379.705078	19070.302734
3378.906250	19192.523438
3378.108398	18920.142578
3377.309570	18826.310547
3376.510742	19073.726563
3375.711914	19167.697266
3374.913086	18973.728516
3374.114258	19042.652344
3373.315430	18851.892578
3372.515625	18898.916016
3371.716797	18805.191406
3370.916992	19092.978516
3370.117188	19021.136719
3369.317383	18905.552734
3368.517578	18871.267578
3367.717773	19068.236328
3366.917969	18737.115234
3366.117188	19115.228516
3365.317383	18809.191406
3364.516602	18952.953125
3363.715820	19027.974609
3362.915039	18800.144531
3362.114258	18722.216797
3361.313477	19068.755859
3360.511719	18750.537109
3359.710938	18969.042969
3358.909180	18994.076172
3358.107422	18944.246094
3357.305664	18866.367188
3356.503906	18850.869141
3355.702148	19128.414063
3354.900391	18729.498047
3354.097656	19031.902344
3353.295898	19069.357422
3352.493164	19066.298828
3351.690430	18698.796875
3350.887695	19001.011719
3350.084961	19141.203125
3349.282227	19019.824219
3348.478516	18979.419922
3347.675781	19035.511719
3346.872070	18820.847656
3346.068359	19094.746094
3345.264648	19293.892578
3344.460938	19091.732422
3343.657227	19098.000000
3342.853516	18970.560547
3342.048828	19262.865234
3341.245117	18942.716797
3340.440430	18865.087891
3339.635742	18790.591797
3338.831055	18905.640625
3338.026367	18955.417969
3337.221680	19008.285156
3336.416992	18843.753906
3335.611328	19002.187500
3334.806641	19123.316406
3334.000977	19101.626953
3333.195313	19027.183594
3332.389648	19222.720703
3331.583984	18856.650391
3330.777344	19151.412109
3329.971680	18949.847656
3329.165039	19120.462891
3328.359375	19077.089844
3327.552734	18940.730469
3326.746094	19253.837891
3325.939453	18680.541016
3325.132813	18978.095703
3324.325195	19173.320313
3323.518555	18724.208984
3322.710938	19185.751953
3321.904297	19145.517578
3321.096680	19188.884766
3320.289063	19126.992188
3319.481445	18925.845703
3318.672852	19111.574219
3317.865234	18662.972656
3317.056641	19108.535156
3316.249023	18861.123047
3315.440430	18950.873047
3314.631836	18780.865234
3313.823242	18981.890625
3313.014648	19114.851563
3312.205078	18815.093750
3311.396484	19189.058594
3310.586914	18954.265625
3309.777344	18926.513672
3308.968750	18731.986328
3308.159180	18886.472656
3307.348633	18997.681641
3306.539063	18868.064453
3305.729492	18936.029297
3304.918945	18723.138672
3304.109375	19343.417969
3303.298828	19031.808594
3302.488281	18834.425781
3301.677734	18763.554688
3300.867188	18914.724609
3300.055664	18887.023438
3299.245117	18908.654297
3298.433594	19112.121094
3297.622070	18822.466797
3296.811523	18998.150391
3296.000000	18834.910156
3295.187500	19183.021484
3294.375977	18758.035156
3293.564453	18973.644531
3292.751953	18810.509766
3291.940430	18927.539063
3291.127930	18853.716797
3290.315430	18822.996094
3289.502930	18798.439453
3288.690430	18749.281250
3287.876953	18823.164063
3287.064453	19026.181641
3286.250977	18909.365234
3285.437500	19017.001953
3284.624023	19029.318359
3283.810547	18811.140625
3282.997070	18780.466797
3282.183594	18878.837891
3281.370117	18799.013672
3280.555664	18971.058594
3279.741211	18759.203125
3278.927734	18964.970703
3278.113281	18903.601563
3277.298828	18744.035156
3276.483398	18940.498047
3275.668945	19118.486328
3274.854492	18722.740234
3274.039063	18511.160156
3273.223633	18848.605469
3272.408203	19041.824219
3271.592773	18839.490234
3270.777344	18815.009766
3269.961914	18769.082031
3269.146484	19112.339844
3268.330078	18907.058594
3267.513672	18913.214844
3266.697266	18818.292969
3265.881836	18585.593750
3265.064453	18806.128906
3264.248047	18980.671875
3263.431641	19130.669922
3262.614258	19112.298828
3261.797852	19029.671875
3260.980469	18784.921875
3260.163086	18714.611328
3259.345703	18989.925781
3258.528320	18907.371094
3257.710938	18974.658203
3256.892578	18925.757813
3256.075195	18782.121094
3255.256836	19029.699219
3254.438477	18797.480469
3253.620117	18944.160156
3252.801758	19029.699219
3251.983398	18779.267578
3251.164063	18764.039063
3250.345703	19121.289063
3249.526367	18898.433594
3248.708008	18941.181641
3247.888672	18938.140625
3247.069336	18626.941406
3246.249023	18947.314453
3245.429688	18889.371094
3244.610352	18864.990234
3243.790039	18666.818359
3242.969727	18965.636719
3242.149414	18910.773438
3241.330078	18807.164063
3240.508789	18788.910156
3239.688477	18724.958984
3238.868164	19029.619141
3238.046875	18919.964844
3237.226563	19066.142578
3236.405273	19178.781250
3235.583984	19309.650391
3234.762695	19060.005859
3233.941406	18977.820313
3233.119141	19163.425781
3232.297852	18859.162109
3231.475586	18932.179688
3230.653320	19035.585938
3229.832031	19248.427734
3229.009766	18901.779297
3228.186523	18941.302734
3227.364258	19132.779297
3226.541992	19166.173828
3225.718750	19053.714844
3224.895508	19150.906250
3224.073242	19211.617188
3223.250000	19281.417969
3222.426758	19172.046875
3221.602539	19111.285156
3220.779297	19178.033203
3219.955078	19305.457031
3219.131836	18941.253906
3218.307617	19299.257813
3217.483398	19526.705078
3216.659180	19211.167969
3215.834961	18901.796875
3215.010742	19380.857422
3214.185547	19289.830078
3213.361328	19511.031250
3212.536133	19459.408203
3211.710938	19098.732422
3210.885742	19189.582031
3210.060547	19262.228516
3209.235352	19322.738281
3208.409180	19458.929688
3207.583984	19246.894531
3206.757813	19425.435547
3205.931641	19165.046875
3205.105469	19404.064453
3204.279297	19639.980469
3203.453125	19285.898438
3202.626953	19288.851563
3201.799805	19636.568359
3200.973633	19191.941406
3200.146484	19394.443359
3199.319336	19494.103516
3198.492188	19348.923828
3197.665039	19388.121094
3196.836914	19448.455078
3196.009766	19215.746094
3195.181641	19493.554688
3194.354492	19722.957031
3193.526367	19445.021484
3192.698242	19758.886719
3191.870117	19631.955078
3191.041016	19197.234375
3190.212891	19290.708984
3189.384766	19528.970703
3188.555664	19682.691406
3187.726563	19555.873047
3186.897461	19594.949219
3186.068359	19712.402344
3185.239258	19745.412109
3184.409180	19570.437500
3183.580078	19504.007813
3182.750000	19534.017578
3181.920898	19548.955078
3181.090820	19365.085938
3180.260742	19714.339844
3179.430664	19729.240234
3178.599609	19792.304688
3177.769531	19605.501953
3176.938477	19497.011719
3176.108398	19659.388672
3175.277344	19436.589844
3174.446289	19845.601563
3173.615234	19812.335938
3172.783203	19616.683594
3171.952148	19553.396484
3171.120117	19568.292969
3170.289063	19574.166016
3169.457031	19703.257813
3168.625000	19790.238281
3167.792969	19657.869141
3166.960938	19858.978516
3166.127930	19915.855469
3165.295898	19582.330078
3164.462891	19810.373047
3163.629883	19870.232422
3162.797852	19807.009766
3161.963867	20124.937500
3161.130859	19707.626953
3160.297852	19611.458984
3159.464844	19887.267578
3158.630859	19803.097656
3157.796875	19811.908203
3156.962891	19964.628906
3156.128906	19784.558594
3155.294922	19640.511719
3154.460938	19865.103516
3153.626953	19840.937500
3152.791992	19699.945313
3151.957031	19654.845703
3151.122070	19777.468750
3150.288086	19906.039063
3149.452148	20013.609375
3148.617188	19746.980469
3147.782227	19627.085938
3146.946289	19803.472656
3146.111328	19668.648438
3145.275391	19605.658203
3144.439453	19677.279297
3143.603516	19530.576172
3142.767578	19901.181641
3141.930664	19536.255859
3141.094727	19891.796875
3140.257813	19565.839844
3139.421875	19724.048828
3138.584961	19673.076172
3137.748047	19601.210938
3136.910156	19825.042969
3136.073242	19726.300781
3135.236328	19454.421875
3134.398438	19669.210938
3133.560547	19358.626953
3132.723633	19731.523438
3131.885742	19808.912109
3131.046875	19671.482422
3130.208984	19689.199219
3129.371094	19524.992188
3128.532227	19539.744141
3127.694336	19798.958984
3126.855469	19912.027344
3126.016602	19551.183594
3125.177734	19893.707031
3124.337891	19476.371094
3123.499023	19616.228516
3122.660156	19216.941406
3121.820313	19812.423828
3120.980469	19868.787109
3120.140625	19731.626953
3119.300781	19573.675781
3118.460938	19487.199219
3117.621094	19620.941406
3116.780273	19721.916016
3115.940430	19367.740234
3115.099609	19938.634766
3114.258789	19867.035156
3113.417969	19872.759766
3112.577148	19753.628906
3111.735352	19812.869141
3110.894531	19625.435547
3110.052734	19545.025391
3109.211914	19681.509766
3108.370117	19844.683594
3107.528320	19782.095703
3106.686523	19778.914063
3105.843750	19677.759766
3105.001953	19814.111328
3104.159180	19804.988281
3103.317383	19421.970703
3102.474609	19626.535156
3101.631836	19469.121094
3100.789063	19632.085938
3099.946289	19569.619141
3099.102539	19693.968750
3098.259766	19687.837891
3097.416016	19649.101563
3096.572266	19794.123047
3095.728516	19879.833984
3094.884766	19805.533203
3094.041016	19914.910156
3093.197266	19624.419922
3092.352539	19606.457031
3091.507813	19893.458984
3090.664063	19706.720703
3089.819336	19721.310547
3088.974609	19818.755859
3088.128906	19750.472656
3087.284180	19812.380859
3086.439453	19806.236328
3085.593750	19542.794922
3084.748047	19776.208984
3083.902344	19861.722656
3083.056641	19973.812500
3082.210938	19633.667969
3081.365234	19680.744141
3080.518555	19975.992188
3079.672852	19916.650391
3078.826172	19662.386719
3077.979492	19750.771484
3077.132813	19892.277344
3076.286133	19508.240234
3075.439453	19815.035156
3074.591797	19540.330078
3073.745117	19997.509766
3072.897461	19716.962891
3072.049805	19728.539063
3071.202148	19698.822266
3070.354492	19663.214844
3069.506836	19775.039063
3068.659180	20107.921875
3067.810547	19809.939453
3066.961914	19629.933594
3066.113281	19856.603516
3065.265625	19767.972656
3064.416016	19720.609375
3063.567383	19823.458984
3062.718750	19681.871094
3061.869141	19484.390625
3061.020508	19790.341797
3060.170898	19745.951172
3059.321289	20069.417969
3058.471680	19695.462891
3057.622070	19633.458984
3056.771484	19906.781250
3055.921875	20094.732422
3055.071289	19706.310547
3054.220703	19835.435547
3053.370117	20087.972656
3052.519531	20037.716797
3051.668945	19590.781250
3050.818359	19822.667969
3049.966797	20066.230469
3049.116211	19895.589844
3048.264648	19895.324219
3047.413086	19989.013672
3046.561523	19548.386719
3045.709961	19782.988281
3044.857422	19932.408203
3044.005859	19996.685547
3043.153320	19705.960938
3042.301758	20048.914063
3041.449219	19981.166016
3040.596680	19705.244141
3039.744141	20048.029297
3038.890625	20100.500000
3038.038086	19933.132813
3037.184570	19906.480469
3036.331055	19806.587891
3035.478516	19671.570313
3034.625000	19677.191406
3033.770508	19764.808594
3032.916992	19770.412109
3032.063477	19784.794922
3031.208984	19848.933594
3030.354492	19860.371094
3029.500977	19959.589844
3028.646484	19731.095703
3027.791016	19684.041016
3026.936523	19727.667969
3026.082031	19525.638672
3025.226563	19987.386719
3024.371094	19805.841797
3023.516602	19609.742188
3022.661133	19577.359375
3021.805664	19971.593750
3020.949219	19778.482422
3020.093750	19544.537109
3019.237305	19818.841797
3018.381836	19766.009766
3017.525391	19538.015625
3016.668945	19651.634766
3015.812500	19733.113281
3014.955078	19601.533203
3014.098633	19662.568359
3013.242188	19878.195313
3012.384766	19810.824219
3011.527344	19609.324219
3010.669922	20026.048828
3009.812500	19550.533203
3008.955078	19640.662109
3008.096680	19850.251953
3007.239258	19631.421875
3006.380859	19704.011719
3005.522461	19642.576172
3004.664063	19718.052734
3003.805664	19513.941406
3002.947266	20008.687500
3002.088867	19833.707031
3001.229492	19804.316406
3000.371094	19806.945313
2999.511719	19818.304688
2998.652344	19634.736328
2997.792969	19843.917969
2996.932617	19616.779297
2996.073242	19503.119141
2995.213867	19534.867188
2994.353516	19572.416016
2993.493164	19894.789063
2992.632813	19662.009766
2991.772461	19655.937500
2990.912109	19478.466797
2990.051758	19620.558594
2989.190430	19509.945313
2988.329102	20000.423828
2987.468750	19738.818359
2986.607422	19436.656250
2985.746094	19697.630859
2984.883789	19746.689453
2984.022461	19502.699219
2983.161133	19894.072266
2982.298828	19670.437500
2981.436523	19690.468750
2980.574219	19487.232422
2979.711914	19805.880859
2978.849609	19669.357422
2977.987305	19527.082031
2977.124023	19550.013672
2976.260742	19564.246094
2975.398438	19821.792969
2974.535156	19705.646484
2973.671875	19447.648438
2972.807617	19716.667969
2971.944336	19884.283203
2971.081055	19875.291016
2970.216797	19594.277344
2969.352539	19747.363281
2968.488281	19729.714844
2967.624023	19743.890625
2966.759766	19954.714844
2965.895508	20038.246094
2965.030273	19982.976563
2964.166016	19846.789063
2963.300781	19869.601563
2962.435547	20068.675781
2961.570313	19961.429688
2960.705078	20047.763672
2959.838867	19848.130859
2958.973633	19983.544922
2958.107422	19688.703125
2957.241211	19977.103516
2956.375000	19878.632813
2955.508789	20114.960938
2954.642578	19828.941406
2953.776367	19975.765625
2952.909180	20015.814453
2952.042969	20162.558594
2951.175781	20018.011719
2950.308594	19945.589844
2949.441406	20210.462891
2948.574219	20114.974609
2947.706055	20313.453125
2946.838867	20145.945313
2945.970703	20272.333984
2945.102539	20234.501953
2944.235352	20248.519531
2943.366211	20311.482422
2942.498047	20184.412109
2941.629883	20166.765625
2940.760742	20382.244141
2939.892578	20217.812500
2939.023438	20171.396484
2938.154297	20237.183594
2937.285156	20072.855469
2936.416016	20147.261719
2935.545898	20362.533203
2934.676758	19792.916016
2933.806641	20390.458984
2932.937500	20298.080078
2932.067383	20194.238281
2931.197266	20176.617188
2930.326172	20362.947266
2929.456055	20147.134766
2928.584961	19937.134766
2927.714844	20249.738281
2926.843750	20214.894531
2925.972656	20426.896484
2925.101563	20062.021484
2924.230469	20319.884766
2923.358398	20419.882813
2922.487305	20155.574219
2921.615234	19980.253906
2920.743164	20194.951172
2919.871094	20378.042969
2918.999023	20119.642578
2918.126953	20428.791016
2917.254883	20497.132813
2916.381836	20290.408203
2915.509766	20648.074219
2914.636719	20192.208984
2913.763672	20174.632813
2912.890625	20016.765625
2912.016602	20348.478516
2911.143555	20179.183594
2910.270508	20276.091797
2909.396484	20181.257813
2908.522461	20681.521484
2907.648438	20243.396484
2906.774414	20428.890625
2905.900391	20376.982422
2905.025391	19996.298828
2904.151367	20301.800781
2903.276367	19989.845703
2902.401367	20415.273438
2901.526367	20154.830078
2900.651367	20174.431641
2899.776367	20328.273438
2898.900391	20282.156250
2898.025391	20156.101563
2897.149414	20161.414063
2896.273438	20240.939453
2895.397461	20152.054688
2894.521484	20148.802734
2893.645508	20259.673828
2892.769531	20022.490234
2891.892578	20293.064453
2891.015625	20241.312500
2890.138672	19932.962891
2889.261719	20271.839844
2888.384766	20034.841797
2887.507813	20171.251953
2886.630859	20410.193359
2885.752930	20361.316406
2884.875000	20614.392578
2883.997070	20394.617188
2883.119141	19915.785156
2882.241211	20225.750000
2881.363281	19818.263672
2880.484375	20011.451172
2879.606445	20141.968750
2878.727539	19854.193359
2877.848633	20311.843750
2876.969727	20026.976563
2876.090820	19969.710938
2875.211914	20253.671875
2874.332031	19937.675781
2873.453125	20008.363281
2872.573242	20198.392578
2871.693359	20010.427734
2870.813477	19958.898438
2869.933594	19816.484375
2869.052734	20085.945313
2868.172852	20159.375000
2867.291992	19968.726563
2866.411133	19627.681641
2865.530273	19619.548828
2864.649414	19611.416016
2863.768555	19603.283203
2862.887695	19595.150391
2862.005859	19991.937500
2861.125000	20300.679688
2860.243164	20144.277344
2859.361328	19826.322266
2858.479492	20013.044922
2857.597656	19936.123047
2856.714844	20054.757813
2855.833008	20043.017578
2854.950195	19841.480469
2854.067383	20011.054688
2853.184570	20104.109375
2852.301758	19996.095703
2851.418945	19933.414063
2850.535156	19794.328125
2849.652344	19709.056641
2848.768555	19869.994141
2847.884766	19730.982422
2847.000977	19775.884766
2846.117188	19914.105469
2845.233398	20323.755859
2844.349609	20066.007813
2843.464844	19743.322266
2842.580078	19830.582031
2841.695313	19954.548828
2840.810547	19691.373047
2839.925781	19676.892578
2839.041016	19704.785156
2838.155273	19650.765625
2837.270508	19574.173828
2836.384766	19788.406250
2835.499023	19869.894531
2834.613281	19962.644531
2833.727539	19821.144531
2832.841797	19832.050781
2831.955078	19617.271484
2831.069336	19732.564453
2830.182617	19802.699219
2829.295898	19920.744141
2828.409180	19917.525391
2827.522461	19976.318359
2826.634766	19471.439453
2825.748047	19995.224609
2824.860352	19811.683594
2823.972656	19676.087891
2823.084961	19808.097656
2822.197266	20035.808594
2821.309570	19798.880859
2820.421875	19860.427734
2819.533203	19733.375000
2818.644531	19876.523438
2817.756836	19780.458984
2816.868164	19766.007813
2815.978516	19855.636719
2815.089844	19694.935547
2814.201172	19874.527344
2813.311523	19753.234375
2812.422852	19809.072266
2811.533203	19457.363281
2810.643555	19473.888672
2809.752930	20108.527344
2808.863281	19768.175781
2807.973633	19689.146484
2807.083008	19919.048828
2806.192383	19893.367188
2805.302734	19710.480469
2804.411133	19740.976563
2803.520508	19807.947266
2802.629883	19902.955078
2801.738281	19989.515625
2800.847656	19714.189453
2799.956055	19912.937500
2799.064453	19985.431641
2798.172852	19707.433594
2797.281250	20004.199219
2796.389648	20090.654297
2795.497070	19596.992188
2794.604492	19834.789063
2793.712891	19753.140625
2792.820313	19828.375000
2791.926758	19998.802734
2791.034180	19763.160156
2790.141602	20238.707031
2789.248047	19944.316406
2788.355469	20058.638672
2787.461914	19932.271484
2786.568359	20021.376953
2785.674805	19629.300781
2784.780273	19877.851563
2783.886719	19835.486328
2782.992188	19854.646484
2782.098633	19957.667969
2781.204102	19660.951172
2780.309570	19945.623047
2779.415039	20037.402344
2778.519531	19914.029297
2777.625000	19969.468750
2776.729492	20019.302734
2775.833984	19985.347656
2774.938477	20118.921875
2774.042969	20087.751953
2773.147461	19897.501953
2772.251953	19980.792969
2771.355469	20326.330078
2770.459961	20044.072266
2769.563477	19965.519531
2768.666992	20238.380859
2767.770508	19858.679688
2766.873047	20006.013672
2765.976563	20011.140625
2765.080078	20211.353516
2764.182617	20026.958984
2763.285156	20207.601563
2762.387695	20087.333984
2761.490234	20150.929688
2760.592773	20272.982422
2759.694336	19980.134766
2758.796875	20043.714844
2757.898438	20190.775391
2757.000000	20276.562500
2756.101563	19936.599609
2755.203125	20078.041016
2754.303711	20010.814453
2753.405273	19938.048828
2752.505859	19907.013672
2751.606445	19834.287109
2750.708008	19972.847656
2749.807617	20269.785156
2748.908203	20052.529297
2748.008789	20196.541016
2747.108398	20151.603516
2746.208984	20203.892578
2745.308594	19934.021484
2744.408203	20036.306641
2743.507813	20041.392578
2742.606445	20013.167969
2741.706055	19843.410156
2740.804688	20026.113281
2739.904297	20219.855469
2739.002930	19925.316406
2738.101563	20171.707031
2737.200195	20032.562500
2736.297852	20009.910156
2735.396484	19718.367188
2734.494141	19997.890625
2733.592773	19692.583984
2732.690430	19947.082031
2731.788086	19860.742188
2730.884766	20228.695313
2729.982422	20167.261719
2729.079102	20006.162109
2728.176758	20061.064453
2727.273438	20096.570313
2726.370117	19833.154297
2725.466797	20137.105469
2724.563477	20037.007813
2723.659180	19884.380859
2722.755859	19734.570313
2721.851563	20052.164063
2720.947266	19686.705078
2720.042969	19758.160156
2719.138672	19898.693359
2718.234375	19693.724609
2717.329102	19853.564453
2716.423828	19908.365234
2715.519531	19954.863281
2714.614258	20122.867188
2713.708984	19909.740234
2712.803711	19757.423828
2711.897461	19737.662109
2710.992188	19883.507813
2710.085938	19789.220703
2709.179688	20072.968750
2708.273438	19504.179688
2707.367188	19964.410156
2706.460938	19908.777344
2705.553711	19712.537109
2704.647461	19441.919922
2703.740234	19860.513672
2702.833008	19774.615234
2701.925781	19595.054688
2701.018555	19848.109375
2700.111328	19842.138672
2699.203125	19629.599609
2698.295898	19866.001953
2697.387695	19603.966797
2696.479492	19631.072266
2695.571289	19575.595703
2694.663086	19740.296875
2693.753906	19750.857422
2692.845703	19599.095703
2691.936523	20088.292969
2691.027344	19614.746094
2690.118164	19762.806641
2689.208984	19803.595703
2688.299805	19539.240234
2687.389648	19766.943359
2686.480469	19648.324219
2685.570313	19917.150391
2684.660156	19828.761719
2683.750000	19773.361328
2682.839844	19715.232422
2681.929688	19544.542969
2681.018555	19524.904297
2680.108398	19711.136719
2679.197266	19812.232422
2678.286133	19745.908203
2677.375000	19778.375000
2676.463867	19747.738281
2675.551758	19574.490234
2674.640625	19557.607422
2673.728516	19617.498047
2672.816406	19378.562500
2671.904297	19668.697266
2670.992188	19599.738281
2670.080078	19662.320313
2669.166992	19741.320313
2668.254883	19571.033203
2667.341797	19830.773438
2666.428711	19564.687500
2665.515625	19665.552734
2664.602539	19396.841797
2663.688477	19555.173828
2662.775391	19603.996094
2661.861328	19923.667969
2660.947266	19696.121094
2660.033203	19550.699219
2659.119141	19517.449219
2658.205078	19637.324219
2657.290039	19757.162109
2656.375977	19822.291016
2655.460938	19641.437500
2654.545898	19411.457031
2653.630859	19692.439453
2652.715820	19659.199219
2651.800781	19399.283203
2650.884766	19499.904297
2649.969727	19682.398438
2649.053711	19433.523438
2648.137695	19569.570313
2647.221680	19659.179688
2646.304688	19459.541016
2645.388672	19704.634766
2644.471680	19742.353516
2643.555664	19725.515625
2642.638672	19727.769531
2641.721680	19664.591797
2640.804688	19705.013672
2639.886719	19573.724609
2638.969727	19804.894531
2638.051758	19706.324219
2637.134766	19735.816406
2636.216797	19678.142578
2635.298828	19533.343750
2634.379883	19603.689453
2633.461914	19611.398438
2632.542969	19594.607422
2631.625000	19400.929688
2630.706055	19528.388672
2629.787109	19517.056641
2628.868164	19345.246094
2627.948242	19532.482422
2627.029297	19613.607422
2626.109375	19607.705078
2625.190430	19395.212891
2624.270508	19343.144531
2623.350586	19617.183594
2622.429688	19668.339844
2621.509766	19542.904297
2620.589844	19537.015625
2619.668945	19558.287109
2618.748047	19701.734375
2617.827148	19636.097656
2616.906250	19347.902344
2615.985352	19293.199219
2615.063477	19363.330078
2614.142578	19582.656250
2613.220703	19055.947266
2612.298828	19760.726563
2611.376953	19356.185547
2610.455078	19640.437500
2609.532227	19387.853516
2608.610352	19466.017578
2607.687500	19384.269531
2606.764648	19397.378906
2605.841797	19570.320313
2604.918945	19661.945313
2603.996094	19295.855469
2603.073242	19238.566406
2602.149414	19127.150391
2601.225586	19465.111328
2600.301758	19597.273438
2599.377930	19150.308594
2598.454102	19214.837891
2597.530273	19355.087891
2596.605469	19481.769531
2595.681641	19630.042969
2594.756836	19378.107422
2593.832031	19380.367188
2592.907227	19452.900391
2591.981445	19252.460938
2591.056641	19476.304688
2590.130859	19227.296875
2589.206055	19361.933594
2588.280273	19493.824219
2587.354492	19639.175781
2586.427734	19455.095703
2585.501953	19435.738281
2584.576172	19491.958984
2583.649414	19510.380859
2582.722656	19455.949219
2581.795898	19638.925781
2580.869141	19360.621094
2579.942383	19122.855469
2579.014648	19462.185547
2578.087891	19353.882813
2577.160156	19523.248047
2576.232422	19396.105469
2575.304688	19366.007813
2574.376953	19354.779297
2573.448242	19276.210938
2572.520508	19340.412109
2571.591797	19587.703125
2570.663086	19484.902344
2569.734375	19438.664063
2568.805664	19247.099609
2567.876953	19313.939453
2566.948242	19902.744141
2566.018555	19587.445313
2565.088867	19482.050781
2564.159180	19417.031250
2563.229492	19685.455078
2562.299805	19399.966797
2561.370117	19310.796875
2560.439453	19390.974609
2559.508789	19653.851563
2558.579102	19424.972656
2557.648438	19384.207031
2556.716797	19297.794922
2555.786133	19504.121094
2554.855469	19492.896484
2553.923828	19492.412109
2552.992188	19478.507813
2552.060547	19542.431641
2551.128906	19662.683594
2550.197266	19460.960938
2549.265625	19417.562500
2548.333008	19950.789063
2547.400391	19577.501953
2546.468750	19745.906250
2545.536133	19509.482422
2544.602539	19557.234375
2543.669922	19304.837891
2542.737305	19473.175781
2541.803711	19333.386719
2540.870117	19426.667969
2539.936523	19640.425781
2539.002930	19680.074219
2538.069336	19406.484375
2537.135742	19836.951172
2536.201172	19485.812500
2535.266602	19578.974609
2534.332031	19597.193359
2533.397461	19361.285156
2532.462891	19641.634766
2531.528320	19558.218750
2530.592773	19718.130859
2529.658203	19271.169922
2528.722656	19749.134766
2527.787109	19422.570313
2526.851563	19646.523438
2525.916016	19504.412109
2524.979492	19324.951172
2524.043945	19260.382813
2523.107422	19348.035156
2522.170898	19414.300781
2521.234375	19603.333984
2520.297852	19650.853516
2519.360352	19354.128906
2518.423828	19575.091797
2517.486328	19430.525391
2516.548828	19459.371094
2515.611328	19485.539063
2514.673828	19471.703125
2513.736328	19532.515625
2512.797852	19518.675781
2511.860352	19336.947266
2510.921875	19411.072266
2509.983398	19288.029297
2509.044922	19167.689453
2508.106445	19588.023438
2507.166992	19395.777344
2506.228516	19331.386719
2505.289063	19618.390625
2504.349609	19242.589844
2503.410156	19345.900391
2502.470703	19204.400391
2501.531250	19041.662109
2500.590820	19525.298828
2499.651367	19046.101563
2498.710938	19141.380859
2497.770508	19207.386719
2496.830078	19454.113281
2495.888672	19320.724609
2494.948242	19283.037109
2494.006836	19378.197266
2493.066406	18960.660156
2492.125000	19289.556641
2491.183594	19108.503906
2490.241211	19288.587891
2489.299805	18956.281250
2488.358398	19112.443359
2487.416016	19337.548828
2486.473633	19281.335938
2485.531250	19132.291016
2484.588867	19222.009766
2483.645508	19306.394531
2482.703125	19014.232422
2481.759766	19127.787109
2480.817383	19063.705078
2479.874023	19079.154297
2478.930664	18970.054688
2477.986328	19054.394531
2477.042969	19464.529297
2476.098633	18918.412109
2475.155273	19000.068359
2474.210938	19224.673828
2473.266602	19028.294922
2472.321289	19170.769531
2471.376953	19030.037109
2470.432617	18979.310547
2469.487305	19050.292969
2468.541992	19036.609375
2467.596680	18985.904297
2466.651367	19212.859375
2465.706055	19164.785156
2464.759766	18907.902344
2463.813477	19282.759766
2462.868164	19150.136719
2461.921875	19009.628906
2460.975586	19075.214844
2460.028320	19048.335938
2459.082031	19113.892578
2458.134766	18994.603516
2457.188477	19052.226563
2456.241211	18975.216797
2455.293945	19412.845703
2454.346680	19053.468750
2453.398438	19232.400391
2452.451172	19213.439453
2451.502930	19410.746094
2450.554688	19006.773438
2449.606445	19175.046875
2448.658203	19456.615234
2447.709961	19561.503906
2446.760742	19318.513672
2445.812500	19584.111328
2444.863281	19457.105469
2443.914063	19535.585938
2442.964844	19429.695313
2442.014648	19616.107422
2441.065430	19512.871094
2440.115234	19522.851563
2439.166016	19519.669922
2438.215820	19666.472656
2437.265625	19702.730469
2436.315430	19928.369141
2435.364258	19780.468750
2434.414063	19885.056641
2433.462891	19642.560547
2432.511719	19965.322266
2431.560547	19822.767578
2430.609375	19851.070313
2429.658203	20076.421875
2428.706055	19810.445313
2427.754883	20017.343750
2426.802734	19507.228516
2425.850586	19732.486328
2424.898438	19781.775391
2423.945313	19636.806641
2422.993164	19523.376953
2422.040039	19769.476563
2421.087891	19391.076172
2420.134766	19474.478516
2419.181641	19337.542969
2418.227539	19688.402344
2417.274414	19656.349609
2416.320313	19508.962891
2415.367188	19151.941406
2414.413086	19444.947266
2413.458984	19528.240234
2412.504883	19349.531250
2411.549805	19511.394531
2410.595703	19120.613281
2409.640625	19274.603516
2408.685547	19174.589844
2407.730469	19462.019531
2406.775391	19045.326172
2405.820313	18848.578125
2404.864258	19094.056641
2403.908203	19051.703125
2402.953125	18938.744141
2401.996094	18977.494141
2401.041016	18875.041016
2400.083984	18942.544922
2399.128906	19075.371094
2398.171875	18967.724609
2397.214844	18888.855469
2396.257813	18890.998047
2395.300781	18937.542969
2394.343750	18968.404297
2393.386719	18923.529297
2392.427734	18933.496094
2391.470703	18901.691406
2390.513672	19029.103516
2389.554688	18973.808594
2388.595703	18848.083984
2387.638672	18965.005859
2386.679688	18954.085938
2385.720703	18713.679688
2384.761719	18762.773438
2383.802734	18806.636719
2382.843750	18855.697266
2381.884766	18756.193359
2380.925781	18893.837891
2379.966797	18598.964844
2379.005859	18851.201172
2378.046875	18829.892578
2377.085938	18699.224609
2376.125000	18714.396484
2375.166016	18542.136719
2374.205078	18721.298828
2373.244141	18507.457031
2372.283203	18782.833984
2371.322266	18626.281250
2370.361328	18615.437500
2369.400391	18344.537109
2368.439453	18656.160156
2367.476563	18302.150391
2366.515625	18189.990234
2365.552734	18267.583984
2364.591797	17983.966797
2363.628906	18240.833984
2362.666016	18315.783203
2361.703125	18146.572266
2360.740234	18055.316406
2359.777344	17977.074219
2358.814453	17888.472656
2357.851563	18256.707031
2356.888672	17968.265625
2355.925781	17752.570313
2354.960938	17762.640625
2353.998047	17964.648438
2353.033203	17596.048828
2352.068359	17523.164063
2351.105469	17673.259766
2350.140625	17631.492188
2349.175781	17895.554688
2348.210938	17550.583984
2347.246094	17656.531250
2346.281250	17511.173828
2345.316406	17671.482422
2344.349609	17640.109375
2343.384766	17733.025391
2342.419922	17321.109375
2341.453125	17212.158203
2340.486328	17082.541016
2339.521484	17449.753906
2338.554688	17260.636719
2337.587891	17550.101563
2336.621094	17192.925781
2335.654297	17340.089844
2334.687500	17182.134766
2333.720703	17218.101563
2332.753906	17225.615234
2331.785156	17233.130859
2330.818359	17240.644531
2329.849609	17248.160156
2328.882813	17255.673828
2327.914063	17263.189453
2326.945313	17270.703125
2325.978516	17389.210938
2325.009766	17086.958984
2324.041016	17053.197266
2323.072266	17117.496094
2322.101563	16652.904297
2321.132813	16975.189453
2320.164063	16920.833984
2319.193359	17008.318359
2318.224609	16874.050781
2317.253906	16757.871094
2316.285156	16788.634766
2315.314453	16837.427734
2314.343750	16801.179688
2313.373047	16927.234375
2312.402344	17156.273438
2311.431641	16952.601563
2310.460938	16671.751953
2309.490234	17013.990234
2308.519531	16952.005859
2307.546875	16761.365234
2306.576172	17046.812500
2305.603516	16550.068359
2304.632813	16668.257813
2303.660156	16945.861328
2302.687500	16583.089844
2301.714844	16665.220703
2300.742188	16724.187500
2299.769531	16554.392578
2298.796875	16641.625000
2297.824219	16793.060547
2296.851563	16469.201172
2295.878906	16597.498047
2294.904297	16515.173828
2293.931641	16466.253906
2292.957031	16707.445313
2291.982422	16471.132813
2291.009766	16435.074219
2290.035156	16878.861328
2289.060547	16321.942383
2288.085938	16347.487305
2287.111328	16629.494141
2286.136719	16239.566406
2285.160156	16270.238281
2284.185547	16541.863281
2283.210938	16452.013672
2282.234375	16431.382813
2281.257813	16467.125000
2280.283203	16259.489258
2279.306641	16162.057617
2278.330078	16443.673828
2277.353516	16136.283203
2276.376953	16428.050781
2275.400391	16517.509766
2274.423828	16258.880859
2273.447266	16506.984375
2272.470703	16194.713867
2271.492188	16245.780273
2270.515625	16340.307617
2269.537109	16317.175781
2268.560547	16421.886719
2267.582031	16130.333984
2266.603516	16291.269531
2265.625000	16452.152344
2264.646484	16426.462891
2263.667969	16441.656250
2262.689453	16214.191406
2261.710938	16295.811523
2260.730469	16354.423828
2259.751953	16076.025391
2258.773438	15978.947266
2257.792969	16336.180664
2256.812500	16213.574219
2255.833984	16009.366211
2254.853516	16073.067383
2253.873047	15940.361328
2252.892578	16164.703125
2251.912109	15937.688477
2250.931641	16011.553711
2249.951172	16115.979492
2248.970703	15993.566406
2247.988281	15962.917969
2247.007813	16148.820313
2246.025391	16209.852539
2245.044922	16018.741211
2244.062500	15983.014648
2243.080078	15924.386719
2242.097656	16173.776367
2241.115234	16033.694336
2240.132813	15817.319336
2239.150391	15730.769531
2238.167969	16147.915039
2237.185547	16140.181641
2236.201172	15936.643555
2235.218750	15883.181641
2234.234375	15667.041016
2233.251953	15844.933594
2232.267578	15791.510742
2231.283203	15895.638672
2230.300781	15763.470703
2229.316406	15885.347656
2228.332031	15852.268555
2227.345703	15735.406250
2226.361328	15951.162109
2225.376953	16111.001953
2224.392578	15676.909180
2223.406250	15854.503906
2222.421875	15676.843750
2221.435547	15735.154297
2220.449219	15580.397461
2219.464844	15798.463867
2218.478516	15631.068359
2217.492188	15486.543945
2216.505859	15780.554688
2215.519531	15603.106445
2214.533203	15666.426758
2213.544922	15565.055664
2212.558594	15380.129883
2211.572266	15494.105469
2210.583984	15646.023438
2209.597656	15486.491211
2208.609375	15600.391602
2207.621094	15582.647461
2206.632813	15491.524414
2205.644531	15585.125977
2204.656250	15585.098633
2203.667969	15322.032227
2202.679688	15433.315430
2201.691406	15526.862305
2200.703125	15496.507813
2199.712891	15397.917969
2198.724609	15673.377930
2197.734375	15771.875977
2196.744141	15645.499023
2195.755859	15349.926758
2194.765625	15458.530273
2193.775391	15546.896484
2192.785156	15304.501953
2191.794922	15301.991211
2190.804688	15514.005859
2189.812500	15587.163086
2188.822266	15425.655273
2187.832031	15468.530273
2186.839844	15604.711914
2185.849609	15332.322266
2184.857422	15566.812500
2183.865234	15476.025391
2182.873047	15455.840820
2181.880859	15508.747070
2180.888672	15475.964844
2179.896484	15254.247070
2178.904297	15299.601563
2177.912109	15387.753906
2176.919922	15410.408203
2175.925781	15201.433594
2174.933594	15596.657227
2173.939453	15430.504883
2172.945313	15239.242188
2171.953125	15651.875977
2170.958984	15518.497070
2169.964844	15322.283203
2168.970703	15455.562500
2167.976563	15395.195313
2166.982422	15337.361328
2165.986328	15362.491211
2164.992188	15548.450195
2163.998047	15475.541992
2163.001953	15332.313477
2162.007813	15518.184570
2161.011719	15390.064453
2160.015625	15234.364258
2159.019531	15329.775391
2158.023438	15440.216797
2157.027344	15442.700195
2156.031250	15364.882813
2155.035156	15570.602539
2154.039063	15339.766602
2153.042969	15289.591797
2152.044922	15565.437500
2151.048828	15460.081055
2150.050781	15512.692383
2149.052734	15299.599609
2148.056641	15683.021484
2147.058594	15402.316406
2146.060547	15329.638672
2145.062500	15231.935547
2144.064453	15444.813477
2143.066406	15251.970703
2142.066406	15352.112305
2141.068359	15211.913086
2140.070313	15504.742188
2139.070313	15534.724609
2138.070313	15096.831055
2137.072266	15286.968750
2136.072266	15527.067383
2135.072266	15514.511719
2134.072266	15216.924805
2133.072266	15401.916992
2132.072266	15459.373047
2131.072266	15411.848633
2130.072266	15256.895508
2129.070313	15526.698242
2128.070313	15426.729492
2127.068359	15314.306641
2126.068359	15481.586914
2125.066406	15321.754883
2124.064453	15391.625000
2123.062500	15176.952148
2122.060547	15281.758789
2121.058594	15142.021484
2120.056641	15386.494141
2119.054688	15426.365234
2118.052734	15196.897461
2117.048828	15336.518555
2116.046875	15234.279297
2115.042969	15181.923828
2114.041016	15171.951172
2113.037109	15266.631836
2112.033203	15338.859375
2111.029297	15246.665039
2110.025391	15149.519531
2109.021484	14972.723633
2108.017578	14982.708984
2107.013672	15092.260742
2106.009766	15154.487305
2105.003906	15047.480469
2104.000000	15134.574219
2102.994141	15234.076172
2101.990234	15139.543945
2100.984375	15216.629883
2099.978516	15316.067383
2098.972656	15139.530273
2097.966797	15084.842773
2096.960938	15069.934570
2095.955078	14856.251953
2094.949219	14908.462891
2093.943359	14853.847656
2092.935547	14801.733398
2091.929688	14816.678711
2090.921875	14774.517578
2089.914063	14774.568359
2088.908203	14777.100586
2087.900391	15015.371094
2086.892578	14802.009766
2085.884766	14856.627930
2084.876953	14881.465820
2083.869141	14926.132813
2082.861328	14851.772461
2081.851563	14735.292969
2080.843750	14841.926758
2079.833984	14933.654297
2078.826172	14703.239258
2077.816406	15057.562500
2076.806641	14824.724609
2075.796875	14923.823242
2074.787109	14797.557617
2073.777344	14936.239258
2072.767578	14673.868164
2071.757813	14728.375977
2070.748047	14572.529297
2069.738281	14523.121094
2068.726563	14721.101563
2067.716797	14842.342773
2066.705078	14852.262695
2065.693359	14775.641602
2064.683594	14619.938477
2063.671875	14736.171875
2062.660156	14758.457031
2061.648438	14820.269531
2060.636719	14501.609375
2059.623047	14632.603516
2058.611328	14857.400391
2057.599609	14679.636719
2056.585938	14704.375977
2055.574219	14756.258789
2054.560547	14768.635742
2053.546875	14475.024414
2052.533203	14642.876953
2051.521484	14773.671875
2050.507813	14786.036133
2049.494141	14699.755859
2048.478516	14556.795898
2047.464844	14778.728516
2046.451172	14401.648438
2045.435547	14618.603516
2044.421875	14902.012695
2043.406250	14803.478516
2042.392578	14510.387695
2041.376953	14705.015625
2040.361328	14705.054688
2039.345703	14680.473633
2038.330078	14764.207031
2037.314453	14781.462891
2036.298828	14761.800781
2035.283203	14533.019531
2034.265625	14542.923828
2033.250000	14515.931641
2032.232422	14562.719727
2031.216797	14693.087891
2030.199219	14565.293945
2029.181641	14491.614258
2028.164063	14526.086914
2027.148438	14707.971680
2026.130859	14597.453125
2025.111328	14781.721680
2024.093750	14622.110352
2023.076172	14622.154297
2022.058594	14398.790039
2021.039063	14663.970703
2020.019531	14357.228516
2019.001953	14516.812500
2017.982422	14556.126953
2016.962891	14558.631836
2015.943359	14494.915039
2014.923828	14288.992188
2013.904297	14289.086914
2012.884766	14438.715820
2011.865234	14205.941406
2010.845703	14299.170898
2009.824219	14284.561523
2008.804688	14176.864258
2007.783203	14394.968750
2006.763672	14238.309570
2005.742188	14284.931641
2004.720703	14302.160156
2003.699219	14248.397461
2002.677734	14209.335938
2001.656250	13967.190430
2000.634766	13964.885742
1999.611328	14160.718750
1998.589844	14033.649414
1997.568359	13928.629883
1996.544922	14129.259766
1995.521484	13833.584961
1994.500000	13948.620117
1993.476563	14019.629883
1992.453125	13853.613281
1991.429688	13971.029297
1990.406250	14049.326172
1989.382813	14020.144531
1988.359375	13815.167969
1987.333984	13744.531250
1986.310547	13791.080078
1985.287109	13991.365234
1984.261719	13845.089844
1983.236328	13801.329102
1982.212891	13645.375000
1981.187500	13721.166992
1980.162109	13935.925781
1979.136719	13843.416016
1978.111328	13704.620117
1977.085938	13665.798828
1976.058594	13522.203125
1975.033203	13671.031250
1974.005859	13471.452148
1972.980469	13581.267578
1971.953125	13476.744141
1970.927734	13489.127930
1969.900391	13438.209961
1968.873047	13567.429688
1967.845703	13494.613281
1966.818359	13528.882813
1965.791016	13602.066406
1964.763672	13305.493164
1963.734375	13407.873047
1962.707031	13340.003906
1961.677734	13332.937500
1960.650391	13376.920898
1959.621094	13309.088867
1958.593750	13282.589844
1957.564453	13107.890625
1956.535156	12935.678711
1955.505859	13169.138672
1954.476563	13334.524414
1953.447266	13310.468750
1952.416016	13276.709961
1951.386719	13109.463867
1950.355469	13187.382813
1949.326172	13124.542969
1948.294922	13197.581055
1947.265625	13122.630859
1946.234375	13147.139648
1945.203125	13268.631836
1944.171875	13317.351563
1943.140625	13254.549805
1942.109375	13126.331055
1941.078125	13313.171875
1940.044922	13175.292969
1939.013672	13114.977539
1937.980469	13224.221680
1936.949219	13207.505859
1935.916016	13164.161133
1934.882813	13304.813477
1933.851563	13290.511719
1932.818359	13300.414063
1931.785156	13206.269531
1930.751953	13230.697266
1929.716797	13170.457031
1928.683594	13209.392578
1927.650391	13274.912109
1926.615234	12997.108398
1925.582031	13270.521484
1924.546875	13096.733398
1923.511719	13227.469727
1922.478516	13331.586914
1921.443359	13317.303711
1920.408203	13170.187500
1919.373047	13298.409180
1918.337891	13264.822266
1917.300781	13211.933594
1916.265625	12997.348633
1915.230469	13183.429688
1914.193359	13248.807617
1913.158203	13130.819336
1912.121094	13080.407227
1911.083984	13155.414063
1910.046875	13264.154297
1909.009766	13035.341797
1907.972656	13346.540039
1906.935547	13185.269531
1905.898438	13212.003906
1904.861328	13180.906250
1903.822266	13210.040039
1902.785156	13113.924805
1901.746094	13097.305664
1900.708984	12965.125977
1899.669922	12987.051758
1898.630859	13085.990234
1897.591797	13175.268555
1896.552734	13295.795898
1895.513672	13026.568359
1894.474609	13197.589844
1893.435547	12988.587891
1892.394531	13008.077148
1891.355469	13159.783203
1890.314453	12902.817383
1889.275391	13071.311523
1888.234375	13160.456055
1887.193359	13170.289063
1886.152344	13120.067383
1885.111328	12949.778320
1884.070313	13010.066406
1883.029297	13043.925781
1881.988281	12969.750977
1880.947266	13046.805664
1879.904297	13006.250000
1878.863281	12996.898438
1877.820313	13004.340820
1876.779297	13189.268555
1875.736328	13098.354492
1874.693359	12949.925781
1873.650391	12957.370117
1872.607422	12888.110352
1871.564453	13032.162109
1870.521484	12991.665039
1869.476563	12920.038086
1868.433594	12802.921875
1867.390625	12834.330078
1866.345703	12681.348633
1865.300781	12897.112305
1864.257813	12693.903320
1863.212891	12785.138672
1862.167969	12926.595703
1861.123047	12663.667969
1860.078125	12695.059570
1859.033203	12779.057617
1857.986328	12504.327148
1856.941406	12657.666016
1855.896484	12646.005859
1854.849609	12624.789063
1853.802734	12464.972656
1852.757813	12462.906250
1851.710938	12453.673828
1850.664063	12475.495117
1849.617188	12272.820313
1848.570313	12562.094727
1847.523438	12435.868164
1846.476563	12553.155273
1845.427734	12395.945313
1844.380859	12637.282227
1843.332031	12501.582031
1842.285156	12330.145508
1841.236328	12294.710938
1840.187500	12447.671875
1839.138672	12335.933594
1838.089844	12226.616211
1837.041016	12489.149414
1835.992188	12096.260742
1834.943359	12382.553711
1833.894531	12328.090820
1832.843750	12092.625000
1831.794922	12400.208008
1830.744141	12100.518555
1829.695313	12346.100586
1828.644531	12110.786133
1827.593750	12208.731445
1826.542969	12092.492188
1825.492188	12069.074219
1824.441406	12005.225586
1823.390625	12205.388672
1822.337891	12015.509766
1821.287109	11927.925781
1820.236328	12037.670898
1819.183594	12225.810547
1818.130859	11995.655273
1817.080078	11834.477539
1816.027344	12248.231445
1814.974609	12063.313477
1813.921875	11885.581055
1812.869141	11971.458984
1811.816406	12054.934570
1810.761719	12014.956055
1809.708984	12005.842773
1808.656250	12148.588867
1807.601563	11933.058594
1806.546875	11978.517578
1805.494141	11921.982422
1804.439453	11685.254883
1803.384766	11846.900391
1802.330078	11972.935547
1801.275391	11906.957031
1800.220703	12009.243164
1799.164063	11850.880859
1798.109375	11922.346680
1797.054688	11946.419922
1795.998047	11946.803711
1794.941406	11949.555664
1793.886719	12042.261719
1792.830078	11985.823242
1791.773438	11903.373047
1790.716797	12142.736328
1789.660156	11972.755859
1788.603516	11883.250977
1787.546875	11912.021484
1786.488281	11924.229492
1785.431641	11929.340820
1784.373047	11830.446289
1783.316406	11752.854492
1782.257813	11750.902344
1781.199219	11727.687500
1780.140625	11832.036133
1779.082031	11957.605469
1778.023438	11830.465820
1776.964844	11859.192383
1775.906250	11824.173828
1774.847656	11836.370117
1773.787109	11702.254883
1772.728516	11712.107422
1771.667969	11816.316406
1770.607422	11762.462891
1769.548828	11753.433594
1768.488281	11826.930664
1767.427734	12008.846680
1766.367188	11839.499023
1765.306641	11799.825195
1764.244141	11788.438477
1763.183594	11774.699219
1762.123047	11921.137695
1761.060547	11808.466797
1760.000000	11731.152344
1758.937500	11705.659180
1757.875000	11729.606445
1756.812500	11711.181641
1755.750000	11873.954102
1754.687500	11601.413086
1753.625000	11888.824219
1752.562500	11677.522461
1751.500000	11609.736328
1750.435547	11572.538086
1749.373047	11413.110352
1748.308594	11618.047852
1747.244141	11672.515625
1746.181641	11710.518555
1745.117188	11701.522461
1744.052734	11622.064453
1742.988281	11707.024414
1741.923828	11641.679688
1740.857422	11512.968750
1739.792969	11407.773438
1738.728516	11600.666992
1737.662109	11631.587891
1736.597656	11514.693359
1735.531250	11721.546875
1734.464844	11571.840820
1733.398438	11759.855469
1732.332031	11643.015625
1731.265625	11439.481445
1730.199219	11622.735352
1729.132813	11433.331055
1728.066406	11581.378906
1726.998047	11621.618164
1725.931641	11741.479492
1724.863281	11500.660156
1723.796875	11655.621094
1722.728516	11646.658203
1721.660156	11398.951172
1720.591797	11705.967773
1719.523438	11455.993164
1718.455078	11512.573242
1717.386719	11484.926758
1716.316406	11765.998047
1715.248047	11478.764648
1714.177734	11462.826172
1713.109375	11645.583008
1712.039063	11372.535156
1710.968750	11277.171875
1709.898438	11424.821289
1708.830078	11366.855469
1707.757813	11407.002930
1706.687500	11475.159180
1705.617188	11473.248047
1704.546875	11436.321289
1703.474609	11137.995117
1702.404297	11245.820313
1701.332031	11285.946289
1700.261719	11295.730469
1699.189453	11221.541992
1698.117188	11284.971680
1697.044922	11243.453125
1695.972656	11316.181641
1694.900391	11279.333008
1693.828125	11172.580078
1692.753906	11273.245117
1691.681641	11359.897461
1690.607422	11173.984375
1689.535156	11297.887695
1688.460938	11226.147461
1687.386719	11135.804688
1686.312500	11159.554688
1685.238281	11260.102539
1684.164063	11099.987305
1683.089844	11179.570313
1682.015625	11098.613281
1680.941406	11138.629883
1679.865234	11008.871094
1678.791016	11188.394531
1677.714844	11126.086914
1676.638672	10998.718750
1675.564453	11259.490234
1674.488281	11183.259766
1673.412109	11009.480469
1672.335938	11116.816406
1671.259766	11142.831055
1670.181641	11140.973633
1669.105469	10997.497070
1668.029297	11072.263672
1666.951172	10947.413086
1665.873047	10917.742188
1664.796875	10936.802734
1663.718750	10902.502930
1662.640625	10947.070313
1661.562500	11077.422852
1660.484375	11094.123047
1659.406250	10879.004883
1658.328125	11013.937500
1657.248047	11037.590820
1656.169922	10903.682617
1655.089844	10894.914063
1654.011719	10802.764648
1652.931641	10800.962891
1651.851563	10801.475586
1650.771484	10841.344727
1649.691406	10665.936523
1648.611328	10837.727539
1647.531250	10803.524414
1646.451172	10711.496094
1645.369141	10832.303711
1644.289063	10492.837891
1643.207031	10673.761719
1642.126953	10507.832031
1641.044922	10654.018555
1639.962891	10534.370117
1638.880859	10421.693359
1637.798828	10401.470703
1636.716797	10404.354492
1635.634766	10409.546875
1634.550781	10213.832031
1633.468750	10369.129883
1632.386719	10385.867188
1631.302734	10250.263672
1630.218750	10453.939453
1629.136719	10212.231445
1628.052734	10353.556641
1626.968750	10404.878906
1625.884766	10368.549805
1624.800781	10087.817383
1623.714844	10222.152344
1622.630859	10031.433594
1621.546875	10078.156250
1620.460938	10023.474609
1619.376953	10150.817383
1618.291016	10038.555664
1617.205078	10020.756836
1616.119141	10051.321289
1615.033203	9962.154297
1613.947266	10013.434570
1612.861328	9910.493164
1611.775391	9839.802734
1610.689453	9753.030273
1609.601563	9894.025391
1608.515625	9986.673828
1607.427734	9943.611328
1606.339844	10050.014648
1605.253906	9977.071289
1604.166016	9623.736328
1603.078125	9753.120117
1601.990234	9634.306641
1600.900391	9878.510742
1599.812500	9663.244141
1598.724609	9787.940430
1597.634766	9710.530273
1596.546875	9855.837891
1595.457031	9654.490234
1594.367188	9701.072266
1593.279297	9788.941406
1592.189453	9803.365234
1591.099609	9856.779297
1590.009766	9809.261719
1588.917969	9837.432617
1587.828125	9762.420898
1586.738281	9632.417969
1585.646484	9766.033203
1584.556641	9807.939453
1583.464844	9636.751953
1582.373047	9701.574219
1581.281250	9608.334961
1580.191406	9824.282227
1579.097656	9756.239258
1578.005859	9713.400391
1576.914063	9766.708984
1575.822266	9696.420898
1574.728516	9740.561523
1573.636719	9668.011719
1572.542969	9938.590820
1571.451172	9669.351563
1570.357422	9804.930664
1569.263672	9752.993164
1568.169922	9730.789063
1567.076172	9736.017578
1565.982422	9661.266602
1564.888672	9748.752930
1563.792969	9728.847656
1562.699219	9795.737305
1561.603516	9800.949219
1560.509766	9591.541992
1559.414063	9756.579102
1558.318359	9955.796875
1557.222656	9974.668945
1556.126953	9977.563477
1555.031250	10055.737305
1553.935547	9837.372070
1552.839844	9806.079102
1551.742188	9720.074219
1550.646484	9574.824219
1549.548828	9887.770508
1548.451172	9731.146484
1547.355469	9772.810547
1546.257813	9730.166992
1545.160156	9676.148438
1544.062500	9731.463867
1542.964844	9559.055664
1541.867188	9673.565430
1540.767578	9753.891602
1539.669922	9775.017578
1538.570313	9623.196289
1537.472656	9671.637695
1536.373047	9506.235352
1535.273438	9568.326172
1534.173828	9678.149414
1533.074219	9412.789063
1531.974609	9649.902344
1530.875000	9580.100586
1529.775391	9648.942383
1528.673828	9656.414063
1527.574219	9695.687500
1526.472656	9546.426758
1525.373047	9460.801758
1524.271484	9511.440430
1523.169922	9489.415039
1522.068359	9515.062500
1520.966797	9552.048828
1519.865234	9718.358398
1518.763672	9734.878906
1517.662109	9315.881836
1516.558594	9418.644531
1515.457031	9464.684570
1514.353516	9440.426758
1513.251953	9459.246094
1512.148438	9319.410156
1511.044922	9360.902344
1509.941406	9388.787109
1508.837891	9380.416992
1507.734375	9324.488281
1506.630859	9338.776367
1505.525391	9271.551758
1504.421875	9224.722656
1503.316406	9354.450195
1502.212891	9074.536133
1501.107422	9315.112305
1500.001953	9150.670898
1498.896484	9248.657227
1497.791016	9215.446289
1496.685547	9297.560547
1495.580078	9002.110352
1494.474609	8944.092773
1493.367188	8897.394531
1492.261719	8984.025391
1491.154297	9045.775391
1490.046875	9182.044922
1488.941406	8764.954102
1487.833984	8959.934570
1486.726563	8705.572266
1485.619141	8751.515625
1484.511719	8826.782227
1483.402344	8775.657227
1482.294922	8923.091797
1481.187500	8571.949219
1480.078125	8719.367188
1478.968750	8792.320313
1477.861328	8644.292969
1476.751953	8780.352539
1475.642578	8738.308594
1474.533203	8817.968750
1473.423828	8575.404297
1472.314453	8724.899414
1471.203125	8655.864258
1470.093750	8737.735352
1468.984375	8745.274414
1467.873047	8676.269531
1466.761719	8634.297852
1465.652344	8790.381836
1464.541016	8710.153320
1463.429688	8623.201172
1462.318359	8657.743164
1461.207031	8624.803711
1460.093750	8672.825195
1458.982422	8682.609375
1457.871094	8793.543945
1456.757813	9088.732422
1455.644531	9013.051758
1454.533203	8663.298828
1453.419922	8569.745117
1452.306641	8671.619141
1451.193359	8780.196289
1450.080078	8547.465820
1448.966797	8590.926758
1447.851563	8694.972656
1446.738281	8682.291992
1445.623047	8730.194336
1444.509766	8638.996094
1443.394531	8606.143555
1442.279297	8692.157227
1441.164063	8432.845703
1440.050781	8465.056641
1438.933594	8526.394531
1437.818359	8668.388672
1436.703125	8673.654297
1435.587891	8479.531250
1434.470703	8659.540039
1433.355469	8436.369141
1432.238281	8618.563477
1431.121094	8621.592773
1430.003906	8505.984375
1428.888672	8457.555664
1427.771484	8397.955078
1426.652344	8423.391602
1425.535156	8506.977539
1424.417969	8494.365234
1423.298828	8376.657227
1422.181641	8341.711914
1421.062500	8559.379883
1419.945313	8370.198242
1418.826172	8328.566406
1417.707031	8485.800781
1416.587891	8272.152344
1415.468750	8485.180664
1414.349609	8369.862305
1413.228516	8352.826172
1412.109375	8480.900391
1410.990234	8276.359375
1409.869141	8348.612305
1408.748047	8228.950195
1407.628906	8341.341797
1406.507813	8313.172852
1405.386719	8271.631836
1404.265625	8143.143066
1403.144531	8181.902344
1402.021484	8102.510254
1400.900391	8139.034180
1399.779297	8090.871094
1398.656250	8238.779297
1397.533203	8259.667969
1396.412109	8166.965332
1395.289063	8027.530762
1394.166016	7995.010254
1393.042969	8093.836426
1391.919922	8083.571289
1390.796875	8019.903320
1389.671875	8096.425293
1388.548828	8172.920898
1387.423828	7917.991699
1386.300781	8116.799316
1385.175781	8010.933105
1384.050781	7974.016113
1382.925781	8161.599609
1381.800781	7949.108887
1380.675781	8034.424805
1379.550781	8030.850586
1378.425781	8011.729492
1377.300781	7963.743652
1376.173828	8031.235840
1375.048828	7883.360840
1373.921875	7815.443359
1372.794922	8091.538574
1371.667969	7957.041016
1370.541016	7900.237305
1369.414063	7907.779297
1368.287109	8101.613770
1367.160156	7984.943359
1366.033203	7956.993652
1364.904297	8057.620605
1363.777344	7980.908691
1362.648438	7908.654785
1361.519531	7889.598145
1360.390625	8007.888672
1359.261719	8008.754395
1358.132813	7996.333008
1357.003906	8037.052734
1355.875000	8009.134277
1354.746094	8118.450684
1353.615234	7951.111816
1352.486328	8002.873535
1351.355469	8017.010254
1350.224609	7902.855957
1349.095703	7963.444824
1347.964844	8101.400879
1346.833984	8073.506836
1345.703125	7910.791504
1344.570313	7947.027344
1343.439453	8000.927734
1342.308594	7973.068359
1341.175781	7965.097656
1340.044922	8089.637695
1338.912109	7980.077148
1337.779297	7824.190430
1336.646484	8072.302734
1335.513672	8033.422852
1334.380859	8182.118164
1333.248047	7977.764160
1332.115234	7905.831055
1330.982422	8005.950684
1329.847656	8059.728516
1328.712891	7917.265137
1327.580078	8026.148926
1326.445313	8068.875488
1325.310547	7988.183594
1324.175781	7980.226074
1323.041016	8036.155273
1321.906250	7911.458496
1320.771484	7984.996582
1319.634766	7792.094727
1318.500000	8072.560547
1317.363281	7802.671875
1316.228516	7799.154785
1315.091797	7901.252930
1313.955078	7847.121582
1312.818359	7909.583984
1311.681641	7908.249512
1310.544922	7832.155273
1309.408203	7813.246094
1308.271484	7972.386230
1307.132813	7858.958008
1305.996094	7868.618164
1304.857422	7823.351074
1303.718750	7865.962402
1302.580078	7713.095703
1301.443359	7722.772949
1300.304688	7697.318848
1299.164063	7733.335938
1298.025391	7762.756836
1296.886719	7715.364746
1295.746094	7707.479980
1294.607422	7745.663574
1293.466797	7698.297363
1292.328125	7666.297363
1291.187500	7711.045410
1290.046875	7554.101563
1288.906250	7671.181152
1287.765625	7573.463867
1286.625000	7504.263184
1285.482422	7649.769531
1284.341797	7639.716309
1283.199219	7570.538086
1282.058594	7468.540039
1280.916016	7638.034180
1279.773438	7352.199219
1278.630859	7368.464355
1277.488281	7529.136719
1276.345703	7558.492188
1275.203125	7611.898438
1274.060547	7483.768555
1272.916016	7563.407715
1271.773438	7516.218750
1270.628906	7447.187500
1269.486328	7341.025879
1268.341797	7551.740723
1267.197266	7552.649414
1266.052734	7520.791504
1264.908203	7346.983887
1263.763672	7435.270996
1262.619141	7525.711426
1261.472656	7539.719238
1260.328125	7431.500977
1259.181641	7476.069824
1258.035156	7546.805176
1256.890625	7362.290039
1255.744141	7417.752441
1254.597656	7468.834473
1253.451172	7450.128906
1252.304688	7483.748535
1251.156250	7508.637695
1250.009766	7511.726074
1248.861328	7693.478027
1247.714844	7500.471680
1246.566406	7516.627930
1245.417969	7539.311523
1244.271484	7411.749023
1243.123047	7578.124023
1241.974609	7489.777344
1240.824219	7527.682617
1239.675781	7509.001953
1238.527344	7431.588379
1237.376953	7543.438965
1236.228516	7700.922363
1235.078125	7532.188965
1233.927734	7524.392578
1232.777344	7447.040039
1231.626953	7684.844727
1230.476563	7587.934570
1229.326172	7456.295410
1228.175781	7576.677246
1227.025391	7621.003906
1225.873047	7571.941406
1224.722656	7635.792969
1223.570313	7695.281250
1222.417969	7752.578613
1221.265625	7816.366699
1220.113281	7823.722168
1218.960938	7822.397461
1217.808594	7667.080566
1216.656250	7726.501465
1215.503906	7861.788086
1214.349609	7741.228027
1213.197266	7826.614258
1212.042969	7859.962402
1210.888672	7808.796875
1209.734375	7725.153809
1208.580078	7881.960938
1207.425781	7698.715820
1206.271484	7810.003906
1205.117188	7897.440430
1203.960938	7839.825684
1202.806641	7764.916992
1201.650391	7990.797363
1200.496094	8197.130859
1199.339844	8094.079102
1198.183594	8097.033203
1197.027344	8145.394043
1195.871094	8087.803711
1194.714844	8138.311035
1193.558594	8216.896484
1192.400391	8459.678711
1191.244141	8531.701172
1190.085938	8443.850586
1188.929688	8604.400391
1187.771484	8536.001953
1186.613281	8422.286133
1185.455078	8647.515625
1184.296875	8611.517578
1183.138672	8547.478516
1181.980469	8779.044922
1180.820313	8736.570313
1179.662109	8899.006836
1178.501953	8768.111328
1177.341797	8917.549805
1176.183594	8922.504883
1175.023438	9050.313477
1173.863281	9229.796875
1172.703125	9295.025391
1171.542969	9284.832031
1170.380859	9371.566406
1169.220703	9445.350586
1168.058594	9387.766602
1166.898438	9571.314453
1165.736328	9520.185547
1164.574219	9660.606445
1163.414063	9850.468750
1162.251953	9657.329102
1161.089844	9971.882813
1159.925781	10112.130859
1158.763672	10228.678711
1157.601563	10214.043945
1156.437500	10399.318359
1155.275391	10421.194336
1154.111328	10619.261719
1152.947266	10686.208984
1151.783203	10821.871094
1150.619141	10912.384766
1149.455078	11052.255859
1148.291016	11061.115234
1147.126953	11321.122070
1145.960938	11297.737305
1144.796875	11431.009766
1143.630859	11525.616211
1142.464844	11746.753906
1141.300781	11965.670898
1140.134766	12156.635742
1138.968750	12109.546875
1137.802734	12266.123047
1136.634766	12394.783203
1135.468750	12602.687500
1134.302734	12731.245117
1133.134766	12896.176758
1131.968750	13084.611328
1130.800781	13204.455078
1129.632813	13538.370117
1128.464844	13491.114258
1127.296875	13758.513672
1126.128906	13801.117188
1124.960938	14177.496094
1123.791016	14363.347656
1122.623047	14643.249023
1121.455078	14719.888672
1120.285156	14961.145508
1119.115234	15223.698242
1117.945313	15107.824219
1116.775391	15622.443359
1115.605469	15577.053711
1114.435547	15854.276367
1113.265625	16146.355469
1112.095703	16404.164063
1110.923828	16407.783203
1109.753906	16528.822266
1108.582031	16809.914063
1107.410156	17020.478516
1106.238281	17173.359375
1105.066406	17217.376953
1103.894531	17389.367188
1102.722656	17874.816406
1101.550781	17797.144531
1100.378906	17943.361328
1099.205078	18121.505859
1098.033203	18169.576172
1096.859375	18160.093750
1095.685547	18329.583984
1094.511719	18622.570313
1093.337891	18493.742188
1092.164063	18788.728516
1090.990234	18593.910156
1089.816406	18533.269531
1088.640625	18642.923828
1087.466797	18661.035156
1086.291016	18845.097656
1085.117188	18724.888672
1083.941406	18738.718750
1082.765625	18480.337891
1081.589844	18634.537109
1080.414063	18352.873047
1079.238281	18521.919922
1078.060547	18484.765625
1076.884766	18309.509766
1075.707031	18121.566406
1074.531250	18237.431641
1073.353516	18170.617188
1072.175781	17940.324219
1070.998047	18009.453125
1069.820313	17738.935547
1068.642578	17986.345703
1067.464844	17720.166016
1066.287109	17791.404297
1065.107422	17597.466797
1063.929688	17331.488281
1062.750000	17243.718750
1061.570313	16907.923828
1060.392578	16930.482422
1059.212891	16571.542969
1058.033203	16322.913086
1056.851563	16133.690430
1055.671875	15963.595703
1054.492188	15948.169922
1053.310547	15492.290039
1052.130859	15508.706055
1050.949219	15167.366211
1049.767578	14997.579102
1048.585938	14982.327148
1047.404297	14827.438477
1046.222656	14598.562500
1045.041016	14515.703125
1043.859375	14267.923828
1042.677734	14090.002930
1041.494141	13831.809570
1040.310547	13922.453125
1039.128906	13803.851563
1037.945313	13697.966797
1036.761719	13727.320313
1035.578125	13632.044922
1034.394531	13357.296875
1033.210938	13376.134766
1032.025391	13411.855469
1030.841797	13266.039063
1029.656250	13265.887695
1028.472656	13227.756836
1027.287109	13073.605469
1026.101563	12995.442383
1024.916016	12938.394531
1023.730469	12807.564453
1022.544922	12689.428711
1021.359375	12645.107422
1020.173828	12459.598633
1018.986328	12489.081055
1017.800781	12588.077148
1016.613281	12312.094727
1015.425781	12251.025391
1014.238281	12063.632813
1013.050781	12141.579102
1011.863281	12122.668945
1010.675781	12040.625000
1009.488281	11975.442383
1008.298828	11849.268555
1007.111328	11906.147461
1005.921875	11698.002930
1004.734375	11538.293945
1003.544922	11618.322266
1002.355469	11353.574219
1001.166016	11238.142578
999.976563	11364.410156
998.785156	11314.147461
997.595703	11200.879883
996.406250	11037.243164
995.214844	10819.062500
994.025391	10836.112305
992.833984	10783.880859
991.642578	10811.424805
990.451172	10687.864258
989.259766	10545.461914
988.068359	10766.031250
986.876953	10661.417969
985.683594	10516.994141
984.492188	10456.489258
983.298828	10437.933594
982.105469	10081.921875
980.914063	10109.540039
979.720703	10047.048828
978.527344	10160.556641
977.333984	9863.482422
976.140625	9884.834961
974.945313	9791.015625
973.751953	9814.465820
972.556641	9745.808594
971.363281	9507.655273
970.167969	9627.394531
968.972656	9640.394531
967.777344	9465.132813
966.582031	9342.215820
965.386719	9357.347656
964.191406	9205.220703
962.994141	9314.434570
961.798828	9089.217773
960.601563	9190.055664
959.406250	9150.878906
958.208984	8961.315430
957.011719	9066.298828
955.814453	9235.979492
954.617188	8990.126953
953.419922	9147.237305
952.222656	8772.083008
951.023438	9039.773438
949.826172	8935.995117
948.626953	8951.156250
947.427734	8876.626953
946.230469	8654.066406
945.031250	8761.004883
943.832031	8742.830078
942.630859	8630.870117
941.431641	8621.058594
940.232422	8607.083008
939.031250	8711.853516
937.832031	8627.050781
936.630859	8683.884766
935.429688	8678.235352
934.230469	8630.952148
933.029297	8660.697266
931.828125	8575.973633
930.625000	8485.037109
929.423828	8533.513672
928.222656	8357.335938
927.019531	8343.428711
925.818359	8269.227539
924.615234	8419.573242
923.412109	8540.766602
922.208984	8429.161133
921.005859	8373.695313
919.802734	8492.755859
918.599609	8526.614258
917.394531	8442.083984
916.191406	8270.373047
914.986328	8584.518555
913.783203	8323.585938
912.578125	8332.538086
911.373047	8320.737305
910.167969	8437.567383
908.962891	8319.962891
907.757813	8409.791016
906.552734	8427.013672
905.345703	8353.007813
904.140625	8318.412109
902.933594	8292.118164
901.726563	8303.130859
900.521484	8382.508789
899.314453	8321.001953
898.107422	8265.728516
896.898438	8378.203125
895.691406	8175.941406
894.484375	8346.353516
893.275391	8305.599609
892.068359	8153.116699
890.859375	8321.375000
889.650391	8063.442383
888.443359	8153.063965
887.234375	8234.383789
886.023438	8092.379395
884.814453	8109.597656
883.605469	8104.074219
882.396484	8038.624512
881.185547	7942.205078
879.974609	8066.856445
878.765625	7852.735352
877.554688	8020.725098
876.343750	7963.603516
875.132813	8063.392090
873.921875	7777.177246
872.708984	7928.554199
871.498047	7896.245605
870.287109	7746.359863
869.074219	7687.279297
867.861328	7615.845215
866.650391	7744.438477
865.437500	7617.356934
864.224609	7605.745117
863.011719	7699.238770
861.796875	7697.918457
860.583984	7649.215820
859.371094	7429.568848
858.156250	7409.760254
856.941406	7375.544434
855.728516	7427.805664
854.513672	7451.231934
853.298828	7466.417480
852.083984	7368.427246
850.869141	7239.611328
849.652344	7454.347656
848.437500	7261.806641
847.220703	7346.922363
846.005859	7351.829590
844.789063	7262.180176
843.572266	7170.506348
842.355469	7070.644531
841.138672	7075.594238
839.921875	7049.730469
838.705078	7017.714355
837.488281	6911.785645
836.269531	7002.987305
835.052734	6868.358887
833.833984	6930.803223
832.615234	6960.393555
831.396484	6998.179688
830.177734	6787.746094
828.958984	6893.229980
827.740234	6937.159180
826.521484	6954.420410
825.300781	7006.523438
824.082031	6753.227051
822.861328	6889.362793
821.640625	6918.912109
820.419922	6774.330078
819.199219	6791.600098
817.978516	6845.723145
816.757813	6928.492188
815.537109	6835.183594
814.316406	7048.915527
813.093750	7002.684082
811.871094	7026.033691
810.650391	7059.602539
809.427734	7177.018066
808.205078	7120.570801
806.982422	7098.901367
805.759766	7187.628906
804.537109	7257.931152
803.312500	7246.465820
802.089844	7302.430176
800.865234	7160.218262
799.640625	7122.222168
798.417969	7386.478516
797.193359	7336.205566
795.968750	7292.073730
794.744141	7452.067383
793.517578	7371.197266
792.292969	7347.485352
791.068359	7366.622559
789.841797	7477.539551
788.615234	7408.955566
787.390625	7385.252441
786.164063	7428.833008
784.937500	7545.776367
783.710938	7615.807129
782.484375	7457.602539
781.255859	7651.895508
780.029297	7398.003906
778.800781	7582.057129
777.574219	7509.486328
776.345703	7355.506348
775.117188	7433.625000
773.888672	7491.365234
772.660156	7451.415527
771.431641	7389.100098
770.203125	7286.124023
768.972656	7354.017578
767.744141	7210.414551
766.513672	7329.123535
765.285156	7309.567871
764.054688	7235.145508
762.824219	7272.508301
761.593750	7222.497070
760.363281	7198.909668
759.130859	7203.763672
757.900391	7235.013184
756.669922	7270.312012
755.437500	7198.014160
754.205078	7247.513672
752.974609	7169.156250
751.742188	7188.210449
750.509766	7215.371582
749.277344	7133.002930
748.042969	7249.387207
746.810547	7175.150879
745.578125	7208.375488
744.343750	7241.588867
743.109375	7187.655273
741.876953	7062.828125
740.642578	7146.690918
739.408203	7242.677246
738.173828	7279.904785
736.937500	7175.393066
735.703125	7273.348145
734.468750	7334.837891
733.232422	7276.913086
731.996094	7362.659668
730.761719	7215.740723
729.525391	7400.573730
728.289063	7245.609863
727.052734	7339.389160
725.816406	7550.383789
724.578125	7379.304199
723.341797	7479.073242
722.103516	7594.971680
720.867188	7706.790039
719.628906	7572.155762
718.390625	7607.200195
717.152344	7626.079590
715.914063	7770.113770
714.675781	7726.388184
713.437500	7832.012207
712.197266	7810.484863
710.958984	7811.155273
709.718750	7993.354980
708.480469	8012.143066
707.240234	7887.767090
706.000000	8152.512207
704.759766	8195.449219
703.519531	8091.257813
702.277344	8067.698242
701.037109	8263.733398
699.794922	8187.782227
698.554688	8460.255859
697.312500	8434.633789
696.070313	8409.020508
694.828125	8566.583008
693.585938	8555.041992
692.343750	8561.614258
691.101563	8727.115234
689.859375	8870.432617
688.615234	9001.633789
687.373047	8887.478516
686.128906	9149.305664
684.884766	9115.566406
683.640625	9190.361328
682.396484	9180.737305
681.152344	9289.648438
679.908203	9290.052734
678.662109	9621.829102
677.417969	9499.689453
676.171875	9696.803711
674.927734	9506.446289
673.681641	9755.670898
672.435547	9868.361328
671.189453	9912.799805
669.943359	9866.958984
668.697266	9989.597656
667.449219	10240.527344
666.203125	10238.758789
664.955078	10287.102539
663.708984	10549.874023
662.460938	10309.598633
661.212891	10556.247070
659.964844	10758.741211
658.716797	11013.236328
657.468750	10688.943359
656.218750	11005.426758
654.970703	10985.509766
653.720703	11151.728516
652.472656	11339.899414
651.222656	11443.976563
649.972656	11341.981445
648.722656	11488.021484
647.472656	11608.015625
646.222656	11743.960938
644.970703	11941.828125
643.720703	11915.780273
642.468750	12045.606445
641.218750	11943.627930
639.966797	12209.239258
638.714844	12291.011719
637.462891	12197.029297
636.210938	12602.216797
634.958984	12434.352539
633.705078	12597.858398
632.453125	12651.553711
631.199219	12687.274414
629.947266	12996.272461
628.693359	13002.002930
627.439453	12989.783203
626.185547	13115.138672
624.931641	13272.344727
623.677734	13471.351563
622.421875	13568.659180
621.167969	13586.235352
619.912109	13482.290039
618.658203	13477.964844
617.402344	13794.252930
616.146484	13959.112305
614.890625	13998.500977
613.634766	14013.991211
612.378906	14359.815430
611.121094	14468.750977
609.865234	14641.305664
608.607422	14543.300781
607.351563	14687.941406
606.093750	14914.050781
604.835938	14893.577148
603.578125	15091.745117
602.320313	15297.792969
601.062500	15243.484375
599.802734	15312.361328
598.544922	15409.020508
597.285156	15537.418945
596.027344	15751.150391
594.767578	15742.466797
593.507813	15896.542969
592.248047	16090.253906
590.988281	16430.724609
589.728516	16368.364258
588.466797	16296.107422
587.207031	16578.853516
585.945313	16704.861328
584.685547	16751.529297
583.423828	16873.498047
582.162109	16811.121094
580.900391	16966.720703
579.638672	17286.693359
578.376953	17440.173828
577.113281	17486.660156
575.851563	17703.412109
574.587891	17928.007813
573.326172	17879.376953
572.062500	17955.437500
570.798828	17962.218750
569.535156	18429.941406
568.271484	18183.457031
567.007813	18346.425781
565.742188	18612.154297
564.478516	18373.671875
563.212891	18680.812500
561.949219	18701.289063
560.683594	18788.937500
559.417969	18698.753906
558.152344	18511.814453
556.886719	18747.566406
555.619141	18708.771484
554.353516	18612.740234
553.087891	18498.976563
551.820313	18472.083984
550.552734	18447.175781
549.285156	18179.617188
548.019531	18004.855469
546.750000	17883.404297
545.482422	17728.472656
544.214844	17607.109375
542.947266	17223.626953
541.677734	17204.873047
540.410156	16939.820313
539.140625	16694.558594
537.871094	16341.045898
536.601563	16038.859375
535.332031	15910.055664
534.062500	15741.920898
532.792969	15607.306641
531.521484	15106.682617
530.251953	14818.744141
528.980469	14784.693359
527.708984	14695.578125
526.439453	14494.392578
525.167969	14448.616211
523.894531	14145.310547
522.623047	14260.792969
521.351563	14079.473633
520.080078	14002.359375
518.806641	13903.661133
517.533203	14013.210938
516.261719	13816.346680
514.988281	13908.199219
513.714844	13662.338867
512.441406	13677.631836
511.167969	13822.449219
509.892578	13680.728516
508.619141	13878.465820
507.343750	13752.475586
506.070313	13769.698242
504.794922	13541.804688
503.519531	13815.887695
502.244141	13887.973633
500.968750	13579.823242
499.693359	13757.738281
498.416016	13963.018555
497.140625	13870.485352
495.863281	13975.791992
494.587891	13801.044922
493.310547	13732.080078
492.033203	13788.416992
490.755859	13723.391602
489.478516	13797.320313
488.199219	13792.964844
486.921875	13849.250000
485.644531	13815.548828
484.365234	13807.280273
483.085938	13724.720703
481.808594	13827.889648
480.529297	13823.530273
479.250000	13790.143555
477.968750	13756.757813
476.689453	13723.371094
475.410156	13689.984375
474.128906	13656.598633
472.849609	13623.211914
471.568359	13589.826172
470.287109	13556.439453
469.005859	13614.572266
467.724609	13672.684570
466.443359	13664.453125
465.162109	13445.588867
463.878906	13712.347656
462.597656	13552.039063
461.314453	13487.302734
460.031250	13393.352539
458.748047	13287.744141
457.464844	13423.759766
456.181641	13329.869141
454.898438	13239.905273
453.615234	13259.020508
452.330078	13169.099609
451.046875	13003.291992
449.761719	12886.198242
448.476563	13170.004883
447.191406	13253.317383
445.906250	13262.680664
444.621094	13017.257813
443.335938	13127.775391
442.050781	13113.823242
440.763672	13006.569336
439.478516	13010.133789
438.191406	12889.332031
436.904297	12982.287109
435.617188	12867.358398
434.330078	12915.613281
433.042969	13004.630859
431.755859	12682.013672
430.466797	13011.746094
429.179688	12794.044922
427.890625	12931.531250
426.601563	12675.116211
425.314453	12744.680664
424.025391	12936.408203
422.734375	12912.823242
421.445313	12809.753906
420.156250	12615.611328
418.867188	12780.091797
417.576172	12944.514648
416.285156	12547.015625
414.996094	12763.722656
413.705078	12726.635742
412.414063	12710.861328
411.123047	12815.130859
409.830078	12708.364258
408.539063	12684.857422
407.248047	12659.423828
405.955078	12637.868164
404.662109	12622.123047
403.369141	12507.744141
402.076172	12687.334961
400.783203	12642.586914
399.490234	12561.125000
398.197266	12435.238281
396.904297	12506.500000
395.609375	12542.958984
394.316406	12351.460938
393.021484	12312.609375
391.726563	12441.772461
390.431641	12263.906250
389.136719	12248.252930
387.841797	12410.168945
386.544922	12519.925781
385.250000	12174.312500
383.953125	12372.806641
382.658203	12272.283203
381.361328	12285.567383
380.064453	12362.471680
378.767578	12317.904297
377.470703	12173.129883
376.173828	12452.347656
374.875000	12313.379883
373.578125	12282.333984
372.279297	12268.632813
370.982422	12301.152344
369.683594	12368.315430
368.384766	12375.780273
367.085938	12365.919922
365.787109	12444.582031
364.486328	12405.851563
363.187500	12163.228516
361.886719	12320.738281
360.587891	12274.357422
359.287109	12433.714844
357.986328	12464.221680
356.685547	12304.441406
355.384766	12294.605469
354.083984	12371.229492
352.781250	12261.494141
351.480469	12464.857422
350.177734	12360.903320
348.876953	12435.541016
347.574219	12481.357422
346.271484	12458.063477
344.968750	12542.238281
343.666016	12327.080078
342.363281	12351.780273
341.058594	12270.985352
339.755859	12460.600586
338.451172	12276.281250
337.146484	12360.396484
335.843750	12457.897461
334.539063	12407.812500
333.232422	12327.088867
331.927734	12384.316406
330.623047	12366.828125
329.318359	12385.729492
328.011719	12370.160156
326.705078	12387.138672
325.400391	12317.984375
324.093750	12135.952148
322.787109	12124.262695
321.478516	12057.102539
320.171875	12186.960938
318.865234	11968.744141
317.556641	11936.059570
316.250000	12060.133789
314.941406	12065.668945
313.632813	11679.463867
312.324219	11891.404297
311.015625	11952.360352
309.707031	11715.349609
308.398438	11965.362305
307.087891	11871.624023
305.779297	11787.462891
304.468750	11731.958984
303.158203	11895.920898
301.847656	11798.443359
300.537109	12000.486328
299.226563	11805.754883
297.916016	11887.590820
296.605469	11742.516602
295.292969	11742.366211
293.982422	11551.625977
292.669922	11833.531250
291.357422	11833.363281
290.044922	11726.520508
288.732422	11836.835938
287.419922	11636.722656
286.105469	11872.669922
284.792969	11514.624023
283.478516	11716.251953
282.166016	11723.712891
280.851563	11807.273438
279.537109	11719.604492
278.222656	11766.999023
276.908203	11628.024414
275.593750	11624.084961
274.277344	11587.832031
272.962891	11561.092773
271.646484	11635.075195
270.332031	11804.025391
269.015625	11725.973633
267.699219	11581.475586
266.382813	11509.186523
265.066406	11497.675781
263.748047	11577.283203
262.431641	11609.415039
261.113281	11487.832031
259.796875	11489.612305
258.478516	11582.441406
257.160156	11605.065430
255.841797	11591.652344
254.523438	11401.924805
253.203125	11648.243164
251.884766	11596.923828
250.566406	11702.898438
249.246094	11651.586914
247.925781	11615.446289
246.605469	11721.360352
245.285156	11749.600586
243.964844	11586.613281
242.644531	11692.475586
241.324219	11798.299805
240.001953	11752.707031
238.681641	11737.401367
237.359375	11706.966797
236.037109	11977.250977
234.714844	11886.275391
233.392578	11923.890625
232.070313	11953.931641
230.748047	11855.447266
229.423828	11961.072266
228.101563	11932.521484
226.777344	11885.092773
225.455078	11964.214844
224.130859	11920.571289
222.806641	11827.857422
221.482422	12097.593750
220.156250	11891.644531
218.832031	11866.912109
217.507813	11745.971680
216.181641	11975.918945
214.855469	12096.401367
213.529297	11983.025391
212.203125	11758.457031
210.876953	11839.329102
209.550781	11954.093750
208.224609	11950.109375
206.896484	12117.564453
205.570313	12083.413086
204.242188	12111.421875
202.914063	11943.593750
201.587891	12037.507813
200.259766	12206.680664
198.929688	12300.514648
197.601563	11940.841797
196.273438	12260.445313
194.943359	12282.742188
193.615234	12353.927734
192.285156	12411.925781
190.955078	12571.420898
189.625000	12550.414063
188.294922	12636.534180
186.964844	12410.712891
185.632813	12718.507813
184.302734	12582.910156
182.970703	12702.766602
181.640625	12777.515625
180.308594	12961.124023
178.976563	12863.117188
177.644531	12941.550781
176.312500	12727.247070
174.978516	12946.376953
173.646484	12764.033203
172.312500	12857.430664
170.980469	12986.418945
169.646484	12806.038086
168.312500	12848.768555
166.978516	13011.421875
165.644531	12791.782227
164.310547	12952.513672
162.974609	13012.044922
161.640625	12908.626953
160.304688	12938.185547
158.968750	12941.523438
157.634766	13004.754883
156.298828	13038.021484
154.962891	13159.215820
153.625000	13055.878906
152.289063	13156.452148
150.951172	12972.737305
149.615234	13235.957031
148.277344	13220.540039
146.939453	13425.680664
145.601563	13322.402344
144.263672	13529.319336
142.925781	13523.200195
141.587891	13509.611328
140.248047	13819.093750
138.910156	13928.685547
137.570313	13778.755859
136.230469	13850.985352
134.892578	13930.654297
133.550781	13961.784180
132.210938	14080.579102
130.871094	14272.072266
129.531250	14226.666016
128.189453	14065.676758
126.849609	14169.454102
125.507813	14271.330078
124.166016	14421.621094
122.824219	14452.616211
121.482422	14355.062500
120.140625	14365.569336
118.796875	14348.138672
117.455078	14630.472656
116.111328	14475.247070
114.767578	14413.135742
113.423828	14436.645508
112.080078	14091.759766
110.736328	14422.251953
109.392578	14380.650391
108.048828	14688.660156
106.703125	14979.827148
105.359375	14815.459961
104.013672	14639.998047
102.667969	14561.227539
101.322266	14731.444336
